LabVIEW Measurement	
Writer_Version	2
Reader_Version	2
Separator	Tab
Decimal_Separator	.
Multi_Headings	No
X_Columns	No
Time_Pref	Relative
Operator	Herve
Date	2023/08/04
Time	16:59:07.16844940185546875
***End_of_Header***	
	
Channels	4				
Samples	3840	3840	3840	3840	
Date	1904/01/01	1904/01/01	1904/01/01	1904/01/01	
Time	09:00:00	09:00:00	09:00:00	09:00:00	
Y_Unit_Label	s	Hz	mV	°	
X_Dimension	Time	Time	Time	Time	
X0	0.0000000000000000E+0	0.0000000000000000E+0	0.0000000000000000E+0	0.0000000000000000E+0	
Delta_X	1.000000	1.000000	1.000000	1.000000	
***End_of_Header***					
X_Value	Time	Res.Frequency	Amplitude	Phase	Comment
	0.000000	1360.861024	22.432000	-4.180000
	0.150009	1360.862212	22.414000	-4.190000
	0.250014	1360.862212	22.446000	-4.200000
	0.350020	1360.861024	22.416000	-4.210000
	0.450026	1360.859837	22.414000	-4.210000
	0.500029	1360.859837	22.416000	-4.200000
	0.652038	1360.864587	22.406000	-4.160000
	0.750043	1360.864587	22.414000	-4.200000
	0.850049	1360.869338	22.410000	-4.160000
	0.950055	1360.869338	22.410000	-4.160000
	1.050060	1360.868150	22.430000	-4.210000
	1.150066	1360.872901	22.410000	-4.160000
	1.250072	1360.871713	22.452000	-4.210000
	1.350077	1360.868150	22.418000	-4.230000
	1.450083	1360.865775	22.426000	-4.220000
	1.550089	1360.864588	22.422000	-4.210000
	1.650095	1360.861025	22.420000	-4.230000
	1.750100	1360.863400	22.426000	-4.180000
	1.850106	1360.857462	22.440000	-4.250000
	1.950112	1360.858650	22.412000	-4.190000
	2.050117	1360.857462	22.410000	-4.210000
	2.155123	1360.861025	22.440000	-4.170000
	2.250129	1360.856275	22.432000	-4.240000
	2.350134	1360.861025	22.434000	-4.160000
	2.450140	1360.857462	22.428000	-4.230000
	2.550146	1360.853900	22.440000	-4.230000
	2.650152	1360.850337	22.432000	-4.230000
	2.750157	1360.853900	22.420000	-4.170000
	2.850163	1360.845587	22.414000	-4.270000
	3.000172	1360.855088	22.426000	-4.120000
	3.101178	1360.856276	22.434000	-4.190000
	3.200183	1360.852713	22.424000	-4.230000
	3.300189	1360.852713	22.420000	-4.200000
	3.400195	1360.851525	22.438000	-4.210000
	3.500200	1360.856276	22.416000	-4.160000
	3.650209	1360.858651	22.434000	-4.180000
	3.750215	1360.857463	22.430000	-4.210000
	3.850220	1360.862214	22.426000	-4.160000
	3.950226	1360.865776	22.434000	-4.170000
	4.053232	1360.864589	22.432000	-4.210000
	4.150238	1360.864589	22.432000	-4.210000
	4.250243	1360.868152	22.422000	-4.170000
	4.350249	1360.866964	22.424000	-4.210000
	4.452255	1360.864589	22.446000	-4.220000
	4.550261	1360.865777	22.430000	-4.190000
	4.650266	1360.856276	22.440000	-4.280000
	4.750272	1360.855089	22.434000	-4.210000
	4.850277	1360.857464	22.416000	-4.180000
	4.950283	1360.853901	22.430000	-4.230000
	5.050289	1360.857464	22.426000	-4.170000
	5.200297	1360.862214	22.420000	-4.160000
	5.300303	1360.866965	22.422000	-4.160000
	5.400309	1360.865777	22.436000	-4.210000
	5.450312	1360.868152	22.428000	-4.180000
	5.550318	1360.870527	22.428000	-4.180000
	5.700326	1360.864590	22.450000	-4.250000
	5.800332	1360.859839	22.428000	-4.240000
	5.900338	1360.863402	22.446000	-4.170000
	6.000343	1360.863402	22.444000	-4.200000
	6.100349	1360.866965	22.430000	-4.170000
	6.200355	1360.863402	22.410000	-4.230000
	6.350363	1360.865777	22.422000	-4.180000
	6.450369	1360.869340	22.424000	-4.170000
	6.550375	1360.869340	22.432000	-4.200000
	6.650381	1360.864590	22.406000	-4.240000
	6.750386	1360.864590	22.406000	-4.240000
	6.850392	1360.865778	22.458000	-4.190000
	6.954398	1360.863402	22.446000	-4.220000
	7.050404	1360.858652	22.438000	-4.240000
	7.150409	1360.857465	22.422000	-4.210000
	7.250415	1360.858652	22.428000	-4.190000
	7.350420	1360.855090	22.412000	-4.230000
	7.450426	1360.850339	22.424000	-4.240000
	7.550432	1360.856277	22.424000	-4.150000
	7.650438	1360.852715	22.418000	-4.230000
	7.751443	1360.855090	22.430000	-4.180000
	7.852449	1360.852715	22.422000	-4.220000
	7.949455	1360.858653	22.430000	-4.150000
	8.049460	1360.864591	22.446000	-4.150000
	8.149466	1360.864591	22.446000	-4.150000
	8.249472	1360.837279	22.076000	-4.430000
	8.349478	1360.852718	22.264000	-4.070000
	8.449483	1361.111980	22.272000	-2.020000
	8.549489	1360.961189	22.370000	-5.470000
	8.649495	1360.920814	22.350000	-4.540000
	8.749501	1360.805651	22.354000	-5.170000
	8.862507	1360.727294	22.342000	-4.860000
	8.949512	1360.760547	22.378000	-3.920000
	9.049518	1360.624036	22.512000	-5.350000
	9.151524	1360.587232	21.594000	-4.510000
	9.249529	1360.565862	23.090000	-4.380000
	9.399538	1360.631182	22.534000	-3.650000
	9.499544	1360.678686	22.822000	-3.800000
	9.599549	1360.803436	22.424000	-3.150000
	9.699555	1360.772563	22.414000	-4.460000
	9.799561	1360.822448	22.466000	-3.780000
	9.949569	1360.801074	22.484000	-4.380000
	10.049575	1360.638450	22.562000	-5.570000
	10.150581	1360.719219	22.392000	-3.520000
	10.299589	1360.728719	22.612000	-4.120000
	10.399595	1360.771475	22.390000	-3.840000
	10.499600	1360.854630	22.356000	-3.500000
	10.605607	1360.854630	22.356000	-3.500000
	10.699612	1361.015076	22.434000	-2.850000
	10.799618	1361.037644	22.008000	-4.010000
	10.899623	1361.105364	21.712000	-3.630000
	11.011630	1361.036487	22.390000	-4.780000
	11.103635	1362.010909	20.294000	3.920000
	11.199641	1362.586372	20.510000	0.620000
	11.300646	1362.882963	20.948000	-1.710000
	11.399652	1363.228604	20.688000	-1.300000
	11.500658	1363.489512	20.534000	-2.010000
	11.599664	1363.708699	20.544000	-2.360000
	11.699669	1363.852794	20.716000	-2.990000
	11.799675	1363.998096	20.814000	-2.980000
	11.899681	1364.101700	20.784000	-3.330000
	11.999686	1364.123129	20.626000	-4.020000
	12.099692	1364.156465	20.484000	-3.920000
	12.249701	1364.198138	20.362000	-3.850000
	12.353707	1364.238621	20.330000	-3.860000
	12.449712	1364.267197	20.284000	-3.960000
	12.549718	1364.276722	20.242000	-4.120000
	12.651724	1364.226727	20.284000	-4.620000
	12.749729	1364.146982	20.360000	-4.870000
	12.849735	1364.058913	20.370000	-4.940000
	12.949741	1363.973229	20.362000	-4.920000
	13.049747	1363.895878	20.344000	-4.850000
	13.199755	1363.895878	20.344000	-4.850000
	13.299761	1363.836379	20.322000	-4.700000
	13.399766	1363.778071	20.366000	-4.690000
	13.499772	1363.722146	20.364000	-4.670000
	13.599778	1363.801908	19.660000	-3.530000
	13.699784	1363.737653	20.358000	-4.740000
	13.799789	1363.697196	20.346000	-4.540000
	13.899795	1363.641274	20.338000	-4.670000
	13.999801	1363.596060	20.340000	-4.580000
	14.102807	1363.590111	20.254000	-4.250000
	14.199812	1363.665102	20.396000	-3.570000
	14.301818	1363.611560	20.388000	-4.650000
	14.399824	1363.530662	20.408000	-4.880000
	14.499829	1363.534232	20.222000	-4.170000
	14.599835	1363.493780	20.340000	-4.540000
	14.699841	1363.469985	20.342000	-4.400000
	14.799847	1363.469985	20.342000	-4.400000
	14.899852	1363.443811	20.360000	-4.420000
	14.999858	1363.417637	20.276000	-4.420000
	15.099864	1363.386705	20.350000	-4.460000
	15.199870	1363.365291	20.364000	-4.380000
	15.299875	1363.345066	20.362000	-4.370000
	15.399881	1363.329600	20.374000	-4.330000
	15.499887	1363.311755	20.338000	-4.350000
	15.599893	1363.304617	20.346000	-4.260000
	15.699898	1363.289152	20.372000	-4.330000
	15.799904	1363.278445	20.354000	-4.290000
	15.903910	1363.268928	20.370000	-4.280000
	16.001915	1363.262980	20.390000	-4.250000
	16.099921	1363.249894	20.360000	-4.310000
	16.199927	1363.249894	20.370000	-4.200000
	16.299932	1363.063199	20.430000	-5.770000
	16.399938	1363.082232	20.370000	-4.040000
	16.499944	1363.097696	20.366000	-4.070000
	16.599950	1363.110782	20.362000	-4.090000
	16.749958	1363.129816	20.338000	-4.040000
	16.849964	1363.142902	20.360000	-4.090000
	16.951970	1363.147660	20.344000	-4.160000
	17.049975	1363.147660	20.352000	-4.200000
	17.149981	1363.157177	20.374000	-4.120000
	17.249987	1363.160746	20.330000	-4.170000
	17.349993	1363.160746	20.330000	-4.170000
	17.453999	1363.159556	20.382000	-4.210000
	17.550004	1363.154798	20.358000	-4.240000
	17.650010	1363.161936	20.346000	-4.140000
	17.750015	1363.175022	20.338000	-4.090000
	17.850021	1363.183349	20.350000	-4.130000
	17.950027	1363.182159	20.340000	-4.210000
	18.050033	1363.178591	20.334000	-4.230000
	18.150038	1363.176211	20.350000	-4.220000
	18.256044	1363.175022	20.338000	-4.210000
	18.350049	1363.175022	20.330000	-4.200000
	18.450056	1363.170264	20.346000	-4.240000
	18.550061	1363.170264	20.320000	-4.200000
	18.650067	1363.171453	20.352000	-4.190000
	18.750072	1363.163126	20.348000	-4.270000
	18.850078	1363.163126	20.348000	-4.270000
	19.000087	1363.163126	20.350000	-4.200000
	19.100092	1363.160747	20.346000	-4.220000
	19.200099	1363.157178	20.342000	-4.230000
	19.300104	1363.150041	20.332000	-4.260000
	19.400110	1363.150041	20.336000	-4.200000
	19.500115	1363.145283	20.346000	-4.240000
	19.600121	1363.152421	20.354000	-4.140000
	19.700127	1363.159558	20.368000	-4.140000
	19.810133	1363.150042	20.342000	-4.280000
	19.900138	1363.150042	20.342000	-4.280000
	20.000144	1363.155990	20.336000	-4.150000
	20.100150	1363.154800	20.334000	-4.210000
	20.200156	1363.154800	20.368000	-4.200000
	20.300161	1363.154800	20.350000	-4.200000
	20.400167	1363.154800	20.316000	-4.200000
	20.500173	1363.144094	20.348000	-4.290000
	20.600178	1363.136957	20.334000	-4.260000
	20.705184	1363.142905	20.346000	-4.150000
	20.807190	1363.140526	20.354000	-4.220000
	20.900196	1363.141716	20.342000	-4.190000
	21.000201	1363.141716	20.342000	-4.190000
	21.100207	1363.144095	20.348000	-4.180000
	21.200213	1363.138147	20.334000	-4.250000
	21.300219	1363.129820	20.340000	-4.270000
	21.401224	1363.132200	20.340000	-4.180000
	21.500230	1363.132200	20.350000	-4.200000
	21.600235	1363.133389	20.340000	-4.190000
	21.708242	1363.136958	20.324000	-4.170000
	21.800247	1363.133389	20.338000	-4.230000
	21.900253	1363.132200	20.354000	-4.210000
	22.000258	1363.128631	20.342000	-4.230000
	22.100264	1363.128631	20.342000	-4.230000
	22.200270	1363.120304	20.338000	-4.270000
	22.300276	1363.114357	20.310000	-4.250000
	22.400281	1363.120305	20.326000	-4.150000
	22.500287	1363.131011	20.334000	-4.110000
	22.602293	1363.129821	20.340000	-4.210000
	22.715299	1363.128632	20.332000	-4.210000
	22.800304	1363.126253	20.352000	-4.220000
	22.900310	1363.129821	20.326000	-4.170000
	23.000316	1363.131011	20.350000	-4.190000
	23.100321	1363.133390	20.358000	-4.180000
	23.250330	1363.135769	20.338000	-4.180000
	23.350336	1363.134580	20.338000	-4.210000
	23.450341	1363.133390	20.338000	-4.210000
	23.550347	1363.126253	20.328000	-4.260000
	23.700356	1363.123874	20.346000	-4.220000
	23.800362	1363.128632	20.354000	-4.160000
	23.900367	1363.121495	20.340000	-4.260000
	24.000373	1363.121495	20.348000	-4.200000
	24.100379	1363.117927	20.344000	-4.230000
	24.250387	1363.111979	20.324000	-4.250000
	24.350393	1363.121496	20.352000	-4.120000
	24.450398	1363.121496	20.352000	-4.120000
	24.550405	1363.114358	20.314000	-4.260000
	24.650410	1363.106032	20.346000	-4.270000
	24.750416	1363.106032	20.338000	-4.200000
	24.850421	1363.106032	20.344000	-4.200000
	24.950427	1363.102463	20.352000	-4.230000
	25.058434	1363.103653	20.340000	-4.190000
	25.150439	1363.101274	20.330000	-4.220000
	25.249444	1363.102463	20.348000	-4.190000
	25.349450	1363.102463	20.346000	-4.200000
	25.499459	1363.109601	20.340000	-4.140000
	25.599464	1363.113169	20.326000	-4.170000
	25.699470	1363.115549	20.334000	-4.180000
	25.799476	1363.108411	20.328000	-4.260000
	25.899481	1363.117928	20.322000	-4.120000
	26.000487	1363.116739	20.326000	-4.210000
	26.149496	1363.125066	20.326000	-4.130000
	26.256502	1363.127445	20.344000	-4.180000
	26.349507	1363.128634	20.328000	-4.190000
	26.449513	1363.126255	20.346000	-4.220000
	26.599522	1362.749304	20.300000	-7.370000
	26.699527	1362.587635	21.610000	-5.560000
	26.799533	1362.675660	20.328000	-3.460000
	26.899539	1362.742272	20.288000	-3.640000
	27.049547	1362.813646	20.348000	-3.600000
	27.149553	1362.864796	20.328000	-3.770000
	27.249559	1362.902860	20.256000	-3.880000
	27.349565	1362.902860	20.256000	-3.880000
	27.499573	1362.948063	20.260000	-3.820000
	27.599579	1362.988509	20.366000	-3.860000
	27.699584	1363.037286	20.300000	-3.790000
	27.800590	1363.089634	20.140000	-3.760000
	27.899596	1363.122944	20.296000	-3.920000
	27.999602	1363.136030	20.306000	-4.090000
	28.099607	1363.302704	20.622000	-2.800000
	28.199613	1363.458671	20.442000	-2.890000
	28.299619	1363.420601	20.308000	-4.520000
	28.414625	1363.389670	20.318000	-4.460000
	28.499630	1363.361118	20.300000	-4.440000
	28.599636	1363.361118	20.300000	-4.440000
	28.699642	1363.342083	20.286000	-4.360000
	28.799647	1363.321859	20.288000	-4.370000
	28.899653	1363.699910	20.248000	-1.030000
	28.999659	1363.204876	20.494000	-8.360000
	29.099665	1363.116868	20.196000	-4.940000
	29.199670	1363.134712	20.266000	-4.050000
	29.299676	1363.145418	20.352000	-4.110000
	29.399682	1363.159694	20.314000	-4.080000
	29.499687	1363.173970	20.306000	-4.080000
	29.599693	1363.189435	20.294000	-4.070000
	29.699699	1363.234649	20.260000	-3.820000
	29.802705	1363.267963	20.250000	-3.920000
	29.899710	1363.300088	20.242000	-3.930000
	29.999716	1363.321505	20.246000	-4.020000
	30.099722	1363.351251	20.270000	-3.950000
	30.199728	1363.416705	20.500000	-3.650000
	30.302733	1363.415515	20.276000	-4.210000
	30.399739	1363.435744	20.670000	-4.030000
	30.499744	1363.385779	20.248000	-4.620000
	30.649753	1363.358417	20.246000	-4.430000
	30.750759	1363.281102	20.174000	-4.850000
	30.849765	1363.306087	20.210000	-3.990000
	30.949770	1363.339404	20.262000	-3.920000
	31.049776	1363.376291	20.246000	-3.890000
	31.149782	1363.415559	20.520000	-3.870000
	31.249787	1363.433408	20.258000	-4.050000
	31.349793	1363.433408	20.258000	-4.050000
	31.449799	1363.498865	20.172000	-3.650000
	31.549805	1363.483398	20.208000	-4.330000
	31.649810	1363.463172	20.228000	-4.370000
	31.749816	1363.466741	20.192000	-4.170000
	31.849822	1363.472691	20.236000	-4.150000
	31.949828	1363.476260	20.210000	-4.170000
	32.049833	1363.413211	20.536000	-4.730000
	32.153839	1363.420350	20.202000	-4.140000
	32.249845	1363.390607	20.244000	-4.450000
	32.399853	1363.372762	20.244000	-4.350000
	32.499859	1363.379901	20.264000	-4.140000
	32.599865	1363.383470	20.204000	-4.170000
	32.699871	1363.388229	20.238000	-4.160000
	32.799876	1363.276426	20.030000	-5.140000
	32.901882	1363.358542	20.088000	-3.510000
	32.999887	1363.365681	20.148000	-4.140000
	33.099893	1363.291933	20.184000	-4.820000
	33.202899	1363.291933	20.184000	-4.820000
	33.299905	1363.315729	20.254000	-4.000000
	33.399910	1363.338336	20.270000	-4.010000
	33.499916	1363.371653	20.172000	-3.920000
	33.599922	1363.381171	20.150000	-4.120000
	33.699928	1363.412109	20.206000	-3.940000
	33.800933	1363.489471	20.320000	-3.550000
	33.899939	1363.493041	20.000000	-4.170000
	33.999945	1363.479953	20.230000	-4.310000
	34.101951	1363.470434	20.222000	-4.280000
	34.199956	1363.468055	20.232000	-4.220000
	34.299962	1363.466865	20.230000	-4.210000
	34.404968	1363.466865	20.226000	-4.200000
	34.501974	1363.457346	20.226000	-4.280000
	34.599979	1363.454967	20.212000	-4.220000
	34.699985	1363.452587	20.210000	-4.220000
	34.799991	1363.449018	20.234000	-4.230000
	34.899996	1363.449018	20.234000	-4.230000
	35.000002	1363.451397	20.224000	-4.180000
	35.106008	1363.444259	20.216000	-4.260000
	35.200014	1363.418085	20.270000	-4.420000
	35.300019	1363.459735	20.168000	-3.850000
	35.400025	1363.458545	20.226000	-4.210000
	35.501030	1363.584741	20.298000	-3.140000
	35.600036	1363.537150	20.180000	-4.600000
	35.700042	1363.505026	20.224000	-4.470000
	35.800048	1363.380132	20.230000	-5.250000
	35.900054	1363.390840	20.290000	-4.110000
	36.007060	1363.409878	20.224000	-4.040000
	36.100065	1363.432486	20.208000	-4.010000
	36.200071	1363.445575	20.192000	-4.090000
	36.300076	1363.425349	20.240000	-4.370000
	36.400082	1363.470570	20.150000	-3.820000
	36.550091	1363.470570	20.168000	-4.200000
	36.650096	1363.354003	20.784000	-5.180000
	36.750102	1363.377801	20.212000	-4.000000
	36.850108	1363.401598	20.216000	-4.000000
	36.950113	1363.415876	20.190000	-4.080000
	37.100122	1363.423015	20.144000	-4.140000
	37.200128	1363.512286	20.078000	-3.450000
	37.300134	1363.537276	20.042000	-3.990000
	37.400139	1363.515859	20.102000	-4.380000
	37.550148	1363.502771	20.112000	-4.310000
	37.650154	1363.480165	20.028000	-4.390000
	37.750159	1363.469456	20.120000	-4.290000
	37.850165	1363.456369	20.138000	-4.310000
	38.000174	1363.455179	20.104000	-4.210000
	38.100179	1390.341039	0.218000	70.220000
	38.200185	1455.131605	0.270000	78.230000
	38.300191	1542.175904	0.192000	79.560000
	38.450199	1606.923301	0.200000	77.570000
	38.550205	1688.745705	0.228000	78.740000
	38.650211	1705.880958	0.274000	58.420000
	38.750216	1742.582625	0.244000	71.350000
	38.900225	1764.908159	0.254000	63.240000
	39.000231	1791.530623	0.316000	66.170000
	39.100236	1814.197369	0.288000	63.000000
	39.200242	1828.600985	0.394000	52.580000
	39.300248	1921.710923	0.254000	78.740000
	39.450256	1943.241998	0.284000	60.560000
	39.500259	1983.717365	0.286000	70.940000
	39.650268	2002.070984	0.406000	56.310000
	39.750274	2035.174033	0.374000	67.660000
	39.900282	2173.743412	0.296000	80.130000
	40.000288	2208.896486	0.402000	67.310000
	40.100294	2258.899611	0.360000	71.970000
	40.200299	2282.365791	0.472000	58.940000
	40.300305	2309.902016	0.426000	62.070000
	40.450314	2330.502729	0.486000	55.440000
	40.550319	2346.201965	0.540000	48.300000
	40.650325	2364.609898	0.616000	52.280000
	40.750331	2483.929354	0.414000	78.690000
	40.900340	2550.337948	0.450000	73.810000
	41.000345	2677.428188	0.480000	78.620000
	41.100351	2751.992936	0.530000	74.220000
	41.200356	2914.878780	0.588000	79.510000
	41.350365	2963.229134	0.704000	67.710000
	41.450371	3049.240466	0.722000	74.620000
	41.550376	3084.719451	0.806000	61.340000
	41.650383	3101.771397	0.884000	42.890000
	41.800391	3145.696463	0.890000	65.080000
	41.900397	3165.075146	0.964000	45.880000
	42.000402	3177.042025	0.832000	32.380000
	42.150411	3177.042025	0.832000	32.380000
	42.259417	3224.235692	1.004000	65.910000
	42.350422	3252.942789	1.050000	55.400000
	42.450428	3283.065133	1.164000	56.330000
	42.550434	3333.302978	1.338000	66.410000
	42.650440	3355.098886	1.384000	47.500000
	42.749445	3369.025483	1.056000	34.920000
	42.850451	3391.194336	1.056000	47.670000
	42.949457	3422.704333	1.300000	56.410000
	43.049462	3441.850698	1.366000	43.220000
	43.150468	3469.647983	1.848000	53.010000
	43.252474	3445.902387	0.862000	-58.990000
	43.349480	3091.294696	0.498000	-92.750000
	43.449485	NaN	0.596000	-94.910000
	43.549491	NaN	0.590000	-93.200000
	43.699500	NaN	0.572000	-94.310000
	43.799505	NaN	0.568000	-95.440000
	43.899511	NaN	0.578000	-93.260000
	43.949514	NaN	0.584000	-94.690000
	44.099523	NaN	0.574000	-95.890000
	44.199528	NaN	0.574000	-95.890000
	44.299534	NaN	0.556000	-94.090000
	44.399539	NaN	0.580000	-96.730000
	44.499545	NaN	0.564000	-92.850000
	44.603551	NaN	0.572000	-93.600000
	44.699557	NaN	0.564000	-94.750000
	44.799562	NaN	0.566000	-95.070000
	44.899568	NaN	0.574000	-95.090000
	44.999574	NaN	0.602000	-92.940000
	45.099580	NaN	0.574000	-95.400000
	45.199585	NaN	0.584000	-93.330000
	45.299591	NaN	0.576000	-93.870000
	45.399597	NaN	0.574000	-93.980000
	45.502603	NaN	0.576000	-95.670000
	45.599608	NaN	0.558000	-94.930000
	45.699614	NaN	0.580000	-92.670000
	45.799620	NaN	0.566000	-93.830000
	45.902626	NaN	0.570000	-94.310000
	45.999631	NaN	0.570000	-94.310000
	46.099637	NaN	0.584000	-94.020000
	46.199643	NaN	0.576000	-93.770000
	46.311649	NaN	0.590000	-95.150000
	46.400654	NaN	0.568000	-97.750000
	46.502660	NaN	0.578000	-92.970000
	46.605666	NaN	0.578000	-96.970000
	46.714672	NaN	0.606000	-95.270000
	46.807677	NaN	0.582000	-93.140000
	46.899683	NaN	0.574000	-94.280000
	46.999688	NaN	0.580000	-93.930000
	47.102694	NaN	0.586000	-97.220000
	47.199700	NaN	0.562000	-96.190000
	47.300705	NaN	0.574000	-95.380000
	47.400712	NaN	0.578000	-93.760000
	47.499717	NaN	0.566000	-93.140000
	47.603723	NaN	0.582000	-95.120000
	47.699728	NaN	0.586000	-94.490000
	47.799734	NaN	0.586000	-94.490000
	47.899740	NaN	0.556000	-93.900000
	48.000746	NaN	0.604000	-97.300000
	48.099751	NaN	0.596000	-94.680000
	48.249760	NaN	0.608000	-95.080000
	48.349766	NaN	0.550000	-95.000000
	48.449771	NaN	0.586000	-95.960000
	48.549777	NaN	0.562000	-93.350000
	48.649783	NaN	0.600000	-95.440000
	48.749788	NaN	0.566000	-94.750000
	48.815792	NaN	0.588000	-96.810000
	48.952800	NaN	0.580000	-95.310000
	49.049806	NaN	0.578000	-94.990000
	49.149811	NaN	0.578000	-94.990000
	49.249817	NaN	0.578000	-94.040000
	49.349823	NaN	NaN	-95.530000
	49.459829	NaN	NaN	-95.530000
	49.549834	NaN	NaN	NaN
	49.649840	NaN	NaN	NaN
	49.749846	NaN	NaN	NaN
	49.849852	NaN	NaN	NaN
	49.952857	NaN	NaN	NaN
	50.049863	NaN	NaN	NaN
	50.199872	NaN	NaN	NaN
	50.301877	NaN	NaN	NaN
	50.399883	NaN	NaN	NaN
	50.499888	NaN	NaN	NaN
	50.599895	NaN	NaN	NaN
	50.699900	NaN	NaN	NaN
	50.799906	NaN	NaN	NaN
	50.899911	NaN	NaN	NaN
	50.999917	NaN	NaN	NaN
	51.099923	NaN	NaN	NaN
	51.199929	NaN	NaN	NaN
	51.299934	NaN	NaN	NaN
	51.400940	NaN	NaN	NaN
	51.499946	NaN	NaN	NaN
	51.600952	NaN	NaN	NaN
	51.699957	NaN	NaN	NaN
	51.799963	NaN	NaN	NaN
	51.899969	NaN	NaN	NaN
	51.999974	NaN	NaN	NaN
	52.100980	NaN	NaN	NaN
	52.201986	NaN	NaN	NaN
	52.300992	NaN	NaN	NaN
	52.401998	NaN	NaN	NaN
	52.533005	NaN	NaN	NaN
	52.594008	NaN	NaN	NaN
	52.698014	NaN	NaN	NaN
	52.814021	NaN	NaN	NaN
	52.873024	NaN	NaN	NaN
	53.063035	NaN	NaN	NaN
	53.160041	NaN	NaN	NaN
	53.261046	1360.647922	20.066000	1.230000
	53.360052	1361.178407	20.100000	0.250000
	53.451057	1361.610862	20.128000	-0.570000
	53.550063	1361.959763	20.124000	-1.270000
	53.653069	1362.240706	20.144000	-1.840000
	53.750074	1362.466844	20.152000	-2.300000
	53.850080	1362.654880	20.158000	-2.620000
	53.950086	1362.806009	20.142000	-2.930000
	54.050092	1362.806009	20.142000	-2.930000
	54.150097	1362.930954	20.164000	-3.150000
	54.250103	1363.028525	20.140000	-3.380000
	54.350109	1363.105865	20.140000	-3.550000
	54.450115	1363.183210	20.150000	-3.550000
	54.550120	1363.235564	20.152000	-3.760000
	54.650126	1363.280779	20.160000	-3.820000
	54.759132	1363.312904	20.138000	-3.930000
	54.867138	1363.343840	20.138000	-3.940000
	54.950143	1363.362878	20.188000	-4.040000
	55.052149	1363.381915	20.136000	-4.040000
	55.168156	1363.397383	20.180000	-4.070000
	55.250160	1363.411661	20.156000	-4.080000
	55.350166	1363.424750	20.156000	-4.090000
	55.450172	1363.431889	20.144000	-4.140000
	55.600180	1363.441408	20.142000	-4.120000
	55.700186	1363.452117	20.154000	-4.110000
	55.800192	1363.462826	20.142000	-4.110000
	55.900198	1363.471155	20.164000	-4.130000
	56.000203	1363.472345	20.158000	-4.190000
	56.101209	1363.477104	20.166000	-4.160000
	56.200215	1363.475914	20.174000	-4.210000
	56.350223	1363.477104	20.150000	-4.190000
	56.450229	1363.478294	20.150000	-4.190000
	56.553235	1363.485433	20.134000	-4.140000
	56.650240	1363.485433	20.134000	-4.140000
	56.750246	1363.478294	20.158000	-4.260000
	56.850252	1363.479484	20.176000	-4.190000
	56.950257	1363.479484	20.170000	-4.200000
	57.055264	1363.477105	20.156000	-4.220000
	57.150269	1363.478294	20.142000	-4.190000
	57.250275	1363.485434	20.162000	-4.140000
	57.350280	1363.481864	20.158000	-4.230000
	57.451286	1363.481864	20.146000	-4.200000
	57.550292	1363.477105	20.164000	-4.240000
	57.650298	1363.474725	20.152000	-4.220000
	57.751303	1363.485434	20.154000	-4.110000
	57.850309	1363.483055	20.174000	-4.220000
	57.950315	1363.485434	20.154000	-4.180000
	58.050321	1363.493764	20.138000	-4.130000
	58.150326	1363.489004	20.158000	-4.240000
	58.250332	1363.489004	20.158000	-4.240000
	58.350338	1363.490194	20.156000	-4.190000
	58.452343	1363.496144	20.154000	-4.150000
	58.550349	1363.493764	20.174000	-4.220000
	58.650355	1363.503283	20.154000	-4.120000
	58.750360	1363.503283	20.172000	-4.200000
	58.850366	1363.499714	20.150000	-4.230000
	58.950372	1363.502093	20.148000	-4.180000
	59.050378	1363.499714	20.146000	-4.220000
	59.150383	1363.503283	20.166000	-4.170000
	59.253389	1363.498524	20.158000	-4.240000
	59.357395	1363.499714	20.154000	-4.190000
	59.450400	1363.487816	20.152000	-4.300000
	59.550406	1363.494955	20.164000	-4.140000
	59.652412	1363.493765	20.148000	-4.210000
	59.750418	1363.493765	20.148000	-4.210000
	59.850423	1363.492575	20.172000	-4.210000
	59.950429	1363.499715	20.148000	-4.140000
	60.052435	1363.500904	20.166000	-4.190000
	60.150441	1363.499715	20.182000	-4.210000
	60.257447	1363.503284	20.146000	-4.170000
	60.352452	1363.508044	20.160000	-4.160000
	60.449458	1363.506854	20.184000	-4.210000
	60.550463	1363.500905	20.148000	-4.250000
	60.650469	1363.497335	20.156000	-4.230000
	60.757475	1363.506854	20.142000	-4.120000
	60.849481	1363.508044	20.162000	-4.190000
	60.954486	1363.511614	20.164000	-4.170000
	61.049492	1363.518754	20.158000	-4.140000
	61.149498	1363.518754	20.142000	-4.200000
	61.250504	1363.517564	20.144000	-4.210000
	61.349509	1363.518754	20.162000	-4.190000
	61.449515	1363.515184	20.150000	-4.230000
	61.599524	1363.516374	20.156000	-4.190000
	61.699529	1363.516374	20.144000	-4.200000
	61.802535	1363.516374	20.144000	-4.200000
	61.899540	1363.521134	20.146000	-4.160000
	61.999547	1363.515184	20.174000	-4.250000
	62.100552	1363.517564	20.154000	-4.180000
	62.199558	1363.524703	20.146000	-4.140000
	62.299563	1363.518754	20.154000	-4.250000
	62.399569	1363.512805	20.152000	-4.250000
	62.499575	1363.510425	20.138000	-4.220000
	62.599581	1363.504476	20.168000	-4.250000
	62.703587	1363.500906	20.132000	-4.230000
	62.799592	1363.499716	20.152000	-4.210000
	62.899598	1363.502096	20.172000	-4.180000
	63.003604	1363.505666	20.142000	-4.170000
	63.099609	1363.508045	20.150000	-4.180000
	63.199615	1363.493768	20.152000	-4.320000
	63.299621	1363.489008	20.136000	-4.240000
	63.399626	1363.489008	20.136000	-4.240000
	63.499632	1363.498527	20.152000	-4.120000
	63.599638	1363.500907	20.156000	-4.180000
	63.699644	1363.500907	20.134000	-4.200000
	63.799649	1363.505667	20.150000	-4.160000
	63.899655	1363.506857	20.144000	-4.190000
	63.999661	1363.504477	20.166000	-4.220000
	64.099667	1363.498528	20.176000	-4.250000
	64.199672	1363.491389	20.166000	-4.260000
	64.299678	1363.489009	20.158000	-4.220000
	64.399683	1363.502098	20.168000	-4.090000
	64.499689	1363.502098	20.146000	-4.200000
	64.604695	1363.503288	20.170000	-4.190000
	64.699701	1363.504478	20.156000	-4.190000
	64.799706	1363.498529	20.158000	-4.250000
	64.899712	1363.503288	20.150000	-4.160000
	64.999718	1363.505668	20.156000	-4.180000
	65.099724	1363.513997	20.140000	-4.130000
	65.199729	1363.508048	20.152000	-4.250000
	65.299735	1363.508048	20.152000	-4.250000
	65.399741	1363.510428	20.176000	-4.180000
	65.499746	1363.512808	20.170000	-4.180000
	65.601752	1363.510428	20.156000	-4.220000
	65.699758	1363.511618	20.154000	-4.190000
	65.799764	1363.515188	20.168000	-4.170000
	65.899769	1363.510428	20.144000	-4.240000
	65.999775	1363.512808	20.168000	-4.180000
	66.149784	1363.513998	20.172000	-4.190000
	66.249789	1363.513998	20.156000	-4.200000
	66.349795	1363.515188	20.150000	-4.190000
	66.449801	1363.510428	20.160000	-4.240000
	66.549807	1363.518758	20.154000	-4.130000
	66.649812	1363.509239	20.156000	-4.280000
	66.749818	1363.510429	20.146000	-4.190000
	66.849824	1363.508049	20.156000	-4.220000
	66.958830	1363.509239	20.162000	-4.190000
	67.049835	1363.510429	20.156000	-4.190000
	67.149841	1363.510429	20.156000	-4.190000
	67.249846	1363.502100	20.162000	-4.270000
	67.349853	1363.504480	20.146000	-4.180000
	67.449858	1363.506859	20.138000	-4.180000
	67.549864	1363.504480	20.156000	-4.220000
	67.649869	1363.504480	20.174000	-4.200000
	67.749875	1363.511619	20.158000	-4.140000
	67.849881	1363.510429	20.166000	-4.210000
	67.949887	1363.515189	20.166000	-4.160000
	68.049892	1363.522328	20.150000	-4.140000
	68.149898	1363.522328	20.144000	-4.200000
	68.249904	1363.524708	20.146000	-4.180000
	68.349909	1363.524708	20.134000	-4.200000
	68.453916	1363.524708	20.132000	-4.200000
	68.549921	1363.527088	20.154000	-4.180000
	68.649927	1363.528278	20.154000	-4.190000
	68.749932	1363.528278	20.148000	-4.200000
	68.849938	1363.530658	20.146000	-4.180000
	68.949944	1363.529468	20.154000	-4.210000
	69.049950	1363.522329	20.130000	-4.260000
	69.149955	1363.534228	20.156000	-4.100000
	69.299964	1363.531848	20.162000	-4.220000
	69.399970	1363.531848	20.162000	-4.220000
	69.499975	1363.535418	20.142000	-4.170000
	69.608982	1363.536608	20.156000	-4.190000
	69.699987	1363.537798	20.162000	-4.190000
	69.799993	1363.535418	20.138000	-4.220000
	69.899998	1363.536608	20.116000	-4.190000
	70.000004	1363.536608	20.158000	-4.200000
	70.100009	1363.536608	20.170000	-4.200000
	70.200016	1363.538988	20.156000	-4.180000
	70.301021	1363.543748	20.144000	-4.160000
	70.400027	1363.544937	20.170000	-4.190000
	70.500032	1363.550887	20.150000	-4.150000
	70.606039	1363.550887	20.154000	-4.200000
	70.701044	1363.556837	20.158000	-4.150000
	70.800050	1363.544938	20.152000	-4.300000
	70.900055	1363.548508	20.166000	-4.170000
	71.050064	1363.550888	20.132000	-4.180000
	71.150070	1363.544938	20.168000	-4.250000
	71.250075	1363.546128	20.156000	-4.190000
	71.350081	1363.554458	20.138000	-4.130000
	71.464087	1363.555648	20.122000	-4.190000
	71.550093	1363.549698	20.138000	-4.250000
	71.654099	1363.548508	20.146000	-4.210000
	71.800107	1363.544939	20.170000	-4.230000
	71.900113	1363.542559	20.172000	-4.220000
	72.000118	1363.550889	20.158000	-4.130000
	72.101124	1363.555648	20.144000	-4.160000
	72.250133	1363.550889	20.168000	-4.240000
	72.350138	1363.548509	20.166000	-4.220000
	72.450144	1363.553269	20.158000	-4.160000
	72.550150	1363.553269	20.154000	-4.200000
	72.650156	1363.552079	20.138000	-4.210000
	72.750161	1363.554459	20.154000	-4.180000
	72.850167	1363.556839	20.148000	-4.180000
	73.000175	1363.560408	20.146000	-4.170000
	73.100181	1363.552079	20.152000	-4.270000
	73.200187	1363.552079	20.130000	-4.200000
	73.301193	1363.552079	20.130000	-4.200000
	73.400198	1363.556839	20.140000	-4.160000
	73.500204	1363.560409	20.138000	-4.170000
	73.600210	1363.556839	20.156000	-4.230000
	73.700215	1363.562789	20.158000	-4.150000
	73.800221	1363.568739	20.156000	-4.150000
	73.900227	1363.572308	20.144000	-4.170000
	74.000233	1363.567549	20.148000	-4.240000
	74.100238	1363.567549	20.154000	-4.200000
	74.205245	1363.566359	20.140000	-4.210000
	74.300250	1363.561599	20.162000	-4.240000
	74.400256	1363.550890	20.160000	-4.290000
	74.501261	1363.552080	20.132000	-4.190000
	74.600267	1363.559220	20.154000	-4.140000
	74.700273	1363.556840	20.122000	-4.220000
	74.800279	1363.560410	20.150000	-4.170000
	74.900284	1363.556840	20.150000	-4.230000
	75.000290	1363.555650	20.164000	-4.210000
	75.150299	1363.565170	20.150000	-4.120000
	75.250304	1363.562790	20.142000	-4.220000
	75.350310	1363.561600	20.130000	-4.210000
	75.450315	1363.563980	20.146000	-4.180000
	75.550321	1363.566360	20.152000	-4.180000
	75.650327	1363.571120	20.158000	-4.160000
	75.800335	1363.571120	20.158000	-4.160000
	75.900342	1363.566360	20.136000	-4.240000
	76.000347	1363.569930	20.138000	-4.170000
	76.100353	1363.565170	20.144000	-4.240000
	76.200358	1363.571120	20.160000	-4.150000
	76.300364	1363.569930	20.156000	-4.210000
	76.400370	1363.567550	20.126000	-4.220000
	76.500376	1363.569930	20.144000	-4.180000
	76.600381	1363.569930	20.170000	-4.200000
	76.700387	1363.566360	20.148000	-4.230000
	76.800393	1363.563980	20.146000	-4.220000
	76.900399	1363.568740	20.144000	-4.160000
	77.000404	1363.568740	20.164000	-4.200000
	77.100410	1363.571120	20.166000	-4.180000
	77.200416	1363.567550	20.156000	-4.230000
	77.300421	1363.565171	20.166000	-4.220000
	77.400427	1363.563981	20.142000	-4.210000
	77.450430	1363.566361	20.142000	-4.180000
	77.600439	1363.566361	20.142000	-4.180000
	77.699444	1363.568740	20.166000	-4.180000
	77.799450	1363.562791	20.140000	-4.250000
	77.899456	1363.568741	20.164000	-4.150000
	77.999462	1363.567551	20.166000	-4.210000
	78.099467	1363.562791	20.140000	-4.240000
	78.199473	1363.561601	20.166000	-4.210000
	78.299479	1363.559221	20.150000	-4.220000
	78.399484	1363.561601	20.160000	-4.180000
	78.499490	1363.569931	20.146000	-4.130000
	78.599496	1363.573501	20.154000	-4.170000
	78.699502	1363.571121	20.166000	-4.220000
	78.799507	1363.561602	20.150000	-4.280000
	78.899513	1363.567552	20.156000	-4.150000
	79.002519	1363.569931	20.176000	-4.180000
	79.099524	1363.569931	20.134000	-4.200000
	79.199530	1363.566362	20.122000	-4.230000
	79.303536	1363.566362	20.122000	-4.230000
	79.399541	1363.560412	20.152000	-4.250000
	79.499547	1363.555652	20.130000	-4.240000
	79.601553	1363.559222	20.150000	-4.170000
	79.700559	1363.561602	20.144000	-4.180000
	79.799564	1363.562792	20.146000	-4.190000
	79.904571	1363.566362	20.150000	-4.170000
	79.999576	1363.573502	20.146000	-4.140000
	80.099582	1363.571122	20.142000	-4.220000
	80.203588	1363.568742	20.130000	-4.220000
	80.300593	1363.575882	20.138000	-4.140000
	80.399599	1363.569932	20.136000	-4.250000
	80.501605	1363.568742	20.126000	-4.210000
	80.601610	1363.575882	20.128000	-4.140000
	80.699616	1363.577072	20.146000	-4.190000
	80.799622	1363.578262	20.176000	-4.190000
	80.899627	1363.580642	20.168000	-4.180000
	80.999633	1363.591352	20.162000	-4.110000
	81.149642	1363.585402	20.148000	-4.250000
	81.249647	1363.581832	20.146000	-4.230000
	81.349653	1363.581832	20.140000	-4.200000
	81.449659	1363.584212	20.158000	-4.180000
	81.549664	1363.577073	20.154000	-4.260000
	81.649670	1363.580643	20.166000	-4.170000
	81.749676	1363.580643	20.166000	-4.170000
	81.849682	1363.586593	20.164000	-4.150000
	81.949687	1363.580643	20.174000	-4.250000
	82.049693	1363.578263	20.140000	-4.220000
	82.149699	1363.575883	20.146000	-4.220000
	82.249704	1363.583023	20.170000	-4.140000
	82.349710	1363.579453	20.130000	-4.230000
	82.449716	1363.571124	20.146000	-4.270000
	82.550722	1363.579454	20.170000	-4.130000
	82.649727	1363.579454	20.144000	-4.200000
	82.749733	1363.574694	20.158000	-4.240000
	82.849739	1363.574694	20.132000	-4.200000
	82.949745	1363.578264	20.176000	-4.170000
	83.049750	1363.579454	20.166000	-4.190000
	83.149756	1363.574694	20.160000	-4.240000
	83.249762	1363.578264	20.164000	-4.170000
	83.399770	1363.573504	20.136000	-4.240000
	83.499776	1363.573504	20.136000	-4.240000
	83.599782	1363.577074	20.162000	-4.170000
	83.699788	1363.578264	20.144000	-4.190000
	83.799793	1363.577074	20.156000	-4.210000
	83.899799	1363.577074	20.162000	-4.200000
	83.999804	1363.569935	20.148000	-4.260000
	84.103811	1363.573505	20.138000	-4.170000
	84.199816	1363.572315	20.168000	-4.210000
	84.299822	1363.572315	20.140000	-4.200000
	84.400827	1363.569935	20.146000	-4.220000
	84.499833	1363.572315	20.148000	-4.180000
	84.599839	1363.571125	20.140000	-4.210000
	84.699845	1363.571125	20.140000	-4.210000
	84.799850	1363.566365	20.162000	-4.240000
	84.899856	1363.566365	20.156000	-4.200000
	84.999862	1363.572315	20.150000	-4.150000
	85.099867	1363.573505	20.152000	-4.190000
	85.199873	1363.573505	20.126000	-4.200000
	85.299879	1363.577075	20.162000	-4.170000
	85.399885	1363.575885	20.148000	-4.210000
	85.499890	1363.578265	20.150000	-4.180000
	85.599896	1363.577075	20.146000	-4.210000
	85.699902	1363.577075	20.148000	-4.200000
	85.799908	1363.584215	20.144000	-4.140000
	85.899913	1363.584215	20.146000	-4.200000
	85.999919	1363.585405	20.138000	-4.190000
	86.105925	1363.597305	20.146000	-4.100000
	86.199931	1363.598495	20.158000	-4.190000
	86.299936	1363.588975	20.154000	-4.280000
	86.399942	1363.588975	20.154000	-4.280000
	86.499948	1363.590165	20.150000	-4.190000
	86.599953	1363.596115	20.128000	-4.150000
	86.699959	1363.587786	20.134000	-4.270000
	86.799965	1363.586596	20.144000	-4.210000
	86.899971	1363.593736	20.130000	-4.140000
	86.999976	1363.596115	20.176000	-4.180000
	87.099982	1363.596115	20.144000	-4.200000
	87.199988	1363.598495	20.154000	-4.180000
	87.299994	1363.592546	20.150000	-4.250000
	87.399999	1363.594926	20.164000	-4.180000
	87.500005	1363.592546	20.174000	-4.220000
	87.603011	1363.588976	20.132000	-4.230000
	87.700016	1363.592546	20.138000	-4.170000
	87.800022	1363.597306	20.138000	-4.160000
	87.900028	1363.591356	20.172000	-4.250000
	88.000033	1363.599686	20.134000	-4.130000
	88.100039	1363.600876	20.138000	-4.190000
	88.200045	1363.600876	20.138000	-4.190000
	88.300051	1363.600876	20.162000	-4.200000
	88.400056	1363.598496	20.148000	-4.220000
	88.500062	1363.597306	20.162000	-4.210000
	88.600068	1363.597306	20.130000	-4.200000
	88.700074	1363.600876	20.136000	-4.170000
	88.800079	1363.597306	20.146000	-4.230000
	88.900085	1363.605636	20.136000	-4.130000
	89.000091	1363.604446	20.152000	-4.210000
	89.100096	1363.605636	20.158000	-4.190000
	89.206102	1363.610396	20.160000	-4.160000
	89.300108	1363.609206	20.168000	-4.210000
	89.400114	1363.609206	20.144000	-4.200000
	89.503119	1363.602067	20.156000	-4.260000
	89.600125	1363.592547	20.140000	-4.280000
	89.700131	1363.596117	20.128000	-4.170000
	89.800137	1363.594927	20.154000	-4.210000
	89.900142	1363.594927	20.154000	-4.210000
	90.000148	1363.587788	20.144000	-4.260000
	90.100153	1363.594927	20.142000	-4.140000
	90.200160	1363.591358	20.160000	-4.230000
	90.300165	1363.591358	20.124000	-4.200000
	90.400171	1363.588978	20.154000	-4.220000
	90.500176	1363.592548	20.166000	-4.170000
	90.600182	1363.591358	20.156000	-4.210000
	90.700188	1363.592548	20.150000	-4.190000
	90.803194	1363.594928	20.158000	-4.180000
	90.900199	1363.597308	20.150000	-4.180000
	91.000205	1363.594928	20.132000	-4.220000
	91.100211	1363.597308	20.142000	-4.180000
	91.200216	1363.594928	20.142000	-4.220000
	91.300222	1363.591358	20.152000	-4.230000
	91.400228	1363.596118	20.156000	-4.160000
	91.500234	1363.597308	20.150000	-4.190000
	91.600239	1363.600878	20.138000	-4.170000
	91.750248	1363.600878	20.138000	-4.170000
	91.850254	1363.599688	20.158000	-4.210000
	91.950259	1363.603258	20.154000	-4.170000
	92.050265	1363.604448	20.132000	-4.190000
	92.150271	1363.604448	20.146000	-4.200000
	92.250277	1363.596118	20.150000	-4.270000
	92.350282	1363.594928	20.148000	-4.210000
	92.450288	1363.599688	20.168000	-4.160000
	92.550294	1363.606828	20.162000	-4.140000
	92.650300	1363.604448	20.156000	-4.220000
	92.750305	1363.609208	20.142000	-4.160000
	92.850311	1363.613968	20.128000	-4.160000
	92.950316	1363.613968	20.144000	-4.200000
	93.050323	1363.613968	20.140000	-4.200000
	93.150328	1363.612778	20.138000	-4.210000
	93.250334	1363.615158	20.144000	-4.180000
	93.351339	1363.603259	20.122000	-4.300000
	93.450345	1363.618729	20.140000	-4.070000
	93.550351	1363.618729	20.140000	-4.070000
	93.650357	1363.613969	20.142000	-4.240000
	93.750362	1363.609210	20.162000	-4.240000
	93.850368	1363.616350	20.146000	-4.140000
	93.950374	1363.613970	20.162000	-4.220000
	94.050380	1363.618730	20.158000	-4.160000
	94.150385	1363.617540	20.132000	-4.210000
	94.250391	1363.616350	20.150000	-4.210000
	94.350397	1363.613970	20.146000	-4.220000
	94.450402	1363.608020	20.142000	-4.250000
	94.550408	1363.606830	20.148000	-4.210000
	94.650414	1363.606830	20.144000	-4.200000
	94.750420	1363.604450	20.142000	-4.220000
	94.850425	1363.604450	20.134000	-4.200000
	94.954431	1363.612780	20.154000	-4.130000
	95.050436	1363.618730	20.128000	-4.150000
	95.150443	1363.615160	20.124000	-4.230000
	95.249448	1363.615160	20.124000	-4.230000
	95.349454	1363.621110	20.162000	-4.150000
	95.449460	1363.618730	20.158000	-4.220000
	95.549465	1363.615160	20.148000	-4.230000
	95.649471	1363.616350	20.148000	-4.190000
	95.749477	1363.617540	20.156000	-4.190000
	95.849483	1363.616350	20.148000	-4.210000
	95.949488	1363.613971	20.144000	-4.220000
	96.049494	1363.616350	20.154000	-4.180000
	96.149499	1363.609211	20.140000	-4.260000
	96.249506	1363.615161	20.130000	-4.150000
	96.349511	1363.618731	20.154000	-4.170000
	96.449517	1363.612781	20.152000	-4.250000
	96.549522	1363.615161	20.158000	-4.180000
	96.653528	1363.618731	20.136000	-4.170000
	96.749534	1363.613971	20.154000	-4.240000
	96.849540	1363.618731	20.154000	-4.160000
	96.949545	1363.617541	20.142000	-4.210000
	97.049551	1363.621111	20.162000	-4.170000
	97.151557	1363.622301	20.146000	-4.190000
	97.249563	1363.624681	20.146000	-4.180000
	97.349568	1363.629441	20.124000	-4.160000
	97.499577	1363.617542	20.162000	-4.300000
	97.599583	1363.622302	20.122000	-4.160000
	97.699588	1363.623492	20.170000	-4.190000
	97.799594	1363.624682	20.170000	-4.190000
	97.899600	1363.624682	20.148000	-4.200000
	97.999606	1363.628252	20.144000	-4.170000
	98.099611	1363.628252	20.150000	-4.200000
	98.249620	1363.628252	20.130000	-4.200000
	98.349626	1363.618732	20.166000	-4.280000
	98.449631	1363.618732	20.166000	-4.280000
	98.549637	1363.615162	20.160000	-4.230000
	98.649642	1363.612782	20.140000	-4.220000
	98.749648	1363.617542	20.160000	-4.160000
	98.849654	1363.621112	20.144000	-4.170000
	98.949660	1363.615162	20.144000	-4.250000
	99.049665	1363.609213	20.150000	-4.250000
	99.149671	1363.609213	20.172000	-4.200000
	99.249677	1363.606833	20.158000	-4.220000
	99.349683	1363.606833	20.130000	-4.200000
	99.449688	1363.619923	20.172000	-4.090000
	99.549694	1363.621113	20.146000	-4.190000
	99.649700	1363.621113	20.140000	-4.200000
	99.757706	1363.625873	20.144000	-4.160000
	99.849711	1363.610404	20.138000	-4.330000
	99.949717	1363.604454	20.150000	-4.250000
	100.049723	1363.603264	20.162000	-4.210000
	100.149728	1363.602074	20.152000	-4.210000
	100.249734	1363.600885	20.146000	-4.210000
	100.357740	1363.603264	20.162000	-4.180000
	100.499748	1363.600885	20.136000	-4.220000
	100.599754	1363.606835	20.156000	-4.150000
	100.699760	1363.613975	20.170000	-4.140000
	100.799766	1363.617544	20.142000	-4.170000
	100.899771	1363.615165	20.164000	-4.220000
	100.999777	1363.615165	20.164000	-4.220000
	101.099783	1363.617545	20.186000	-4.180000
	101.199789	1363.612785	20.154000	-4.240000
	101.299794	1363.613975	20.186000	-4.190000
	101.399800	1363.611595	20.154000	-4.220000
	101.509806	1363.609215	20.186000	-4.220000
	101.599812	1363.617545	20.152000	-4.130000
	101.699817	1363.616355	20.162000	-4.210000
	101.833825	1363.615165	20.146000	-4.210000
	101.900828	1363.611595	20.140000	-4.230000
	101.999834	1363.612785	20.156000	-4.190000
	102.149843	1363.618735	20.150000	-4.150000
	102.249848	1363.616355	20.136000	-4.220000
	102.349854	1363.619925	20.166000	-4.170000
	102.449860	1363.610406	20.166000	-4.280000
	102.599868	1363.612786	20.136000	-4.180000
	102.699874	1363.612786	20.142000	-4.200000
	102.849883	1363.610406	20.144000	-4.220000
	102.949889	1363.615166	20.162000	-4.160000
	103.049894	1363.616356	20.152000	-4.190000
	103.149900	1363.619926	20.152000	-4.170000
	103.249906	1363.623496	20.160000	-4.170000
	103.399914	1363.624686	20.168000	-4.190000
	103.499920	1363.619926	20.142000	-4.240000
	103.607926	1363.624686	20.132000	-4.160000
	103.751935	1363.629446	20.168000	-4.160000
	103.849940	1363.633016	20.168000	-4.170000
	103.949946	1363.636586	20.172000	-4.170000
	104.100955	1363.636586	20.142000	-4.200000
	104.201960	1363.636586	20.144000	-4.200000
	104.299966	1363.641346	20.140000	-4.160000
	104.399971	1363.633016	20.162000	-4.270000
	104.500977	1363.629446	20.142000	-4.230000
	104.649986	1363.631826	20.150000	-4.180000
	104.749991	1363.627066	20.154000	-4.240000
	104.849997	1363.621116	20.158000	-4.250000
	104.950003	1363.630637	20.138000	-4.120000
	105.050009	1363.629447	20.152000	-4.210000
	105.150014	1363.629447	20.146000	-4.200000
	105.251020	1363.629447	20.146000	-4.200000
	105.400029	1363.635397	20.154000	-4.150000
	105.500034	1363.635397	20.158000	-4.200000
	105.550037	1363.634207	20.156000	-4.210000
	105.700046	1363.636587	20.150000	-4.180000
	105.800052	1363.644917	20.154000	-4.130000
	105.900057	1363.647297	20.154000	-4.180000
	105.950060	1363.650867	20.156000	-4.170000
	106.100069	1363.653247	20.144000	-4.180000
	106.200074	1363.648487	20.178000	-4.240000
	106.300080	1363.647297	20.148000	-4.210000
	106.400086	1363.647297	20.144000	-4.200000
	106.503092	1363.649677	20.162000	-4.180000
	106.602098	1363.643727	20.164000	-4.250000
	106.701103	1363.642537	20.134000	-4.210000
	106.800109	1363.640157	20.154000	-4.220000
	106.901114	1363.638967	20.154000	-4.210000
	107.000120	1363.640157	20.148000	-4.190000
	107.101126	1363.640157	20.148000	-4.190000
	107.200131	1363.643727	20.138000	-4.170000
	107.300138	1363.644917	20.148000	-4.190000
	107.400143	1363.638967	20.162000	-4.250000
	107.500149	1363.638967	20.144000	-4.200000
	107.600154	1363.641347	20.150000	-4.180000
	107.700160	1363.642538	20.168000	-4.190000
	107.800166	1363.640158	20.156000	-4.220000
	107.900172	1363.644918	20.126000	-4.160000
	108.000177	1363.658008	20.146000	-4.090000
	108.100183	1363.667529	20.150000	-4.120000
	108.200189	1363.669909	20.148000	-4.180000
	108.306195	1363.665149	20.148000	-4.240000
	108.401200	1363.672289	20.162000	-4.140000
	108.500206	1363.661579	20.146000	-4.290000
	108.602212	1363.661579	20.178000	-4.200000
	108.700217	1363.661579	20.178000	-4.200000
	108.800223	1363.660389	20.152000	-4.210000
	108.900229	1363.658009	20.176000	-4.220000
	109.000235	1363.656819	20.150000	-4.210000
	109.100240	1363.658009	20.140000	-4.190000
	109.200246	1363.660389	20.142000	-4.180000
	109.301252	1363.658009	20.146000	-4.220000
	109.400258	1363.663960	20.144000	-4.150000
	109.500263	1363.658010	20.148000	-4.250000
	109.602269	1363.660390	20.146000	-4.180000
	109.700274	1363.659200	20.128000	-4.210000
	109.804281	1363.659200	20.148000	-4.200000
	109.900286	1363.655630	20.128000	-4.230000
	110.001292	1363.653250	20.170000	-4.220000
	110.100297	1363.647300	20.128000	-4.250000
	110.200303	1363.642540	20.138000	-4.240000
	110.303309	1363.638970	20.164000	-4.230000
	110.400315	1363.638970	20.164000	-4.230000
	110.501320	1363.636590	20.140000	-4.220000
	110.600326	1363.641350	20.140000	-4.160000
	110.700332	1363.647300	20.172000	-4.150000
	110.802338	1363.646110	20.150000	-4.210000
	110.901343	1363.644920	20.148000	-4.210000
	111.000349	1363.642540	20.158000	-4.220000
	111.109355	1363.648490	20.144000	-4.150000
	111.201361	1363.644920	20.152000	-4.230000
	111.300366	1363.647300	20.148000	-4.180000
	111.400372	1363.655630	20.122000	-4.130000
	111.500378	1363.654440	20.136000	-4.210000
	111.657386	1363.661581	20.158000	-4.140000
	111.750392	1363.658011	20.164000	-4.230000
	111.850398	1363.658011	20.152000	-4.200000
	111.950403	1363.655631	20.162000	-4.220000
	112.050409	1363.656821	20.170000	-4.190000
	112.150415	1363.652061	20.166000	-4.240000
	112.250421	1363.647301	20.156000	-4.240000
	112.350426	1363.647301	20.152000	-4.200000
	112.500435	1363.650871	20.156000	-4.170000
	112.600441	1363.644921	20.148000	-4.250000
	112.699446	1363.652061	20.136000	-4.140000
	112.799452	1363.649681	20.142000	-4.220000
	112.899457	1363.648491	20.166000	-4.210000
	112.999464	1363.652061	20.120000	-4.170000
	113.099469	1363.652061	20.120000	-4.170000
	113.199475	1363.650871	20.164000	-4.210000
	113.299480	1363.649681	20.152000	-4.210000
	113.399486	1363.655631	20.132000	-4.150000
	113.499492	1363.654441	20.144000	-4.210000
	113.599498	1363.652061	20.184000	-4.220000
	113.699503	1363.650871	20.138000	-4.210000
	113.799509	1363.655631	20.164000	-4.160000
	113.899515	1363.650872	20.152000	-4.240000
	114.001521	1363.643732	20.136000	-4.260000
	114.099526	1363.647302	20.136000	-4.170000
	114.199532	1363.644922	20.130000	-4.220000
	114.299538	1363.646112	20.154000	-4.190000
	114.399543	1363.646112	20.128000	-4.200000
	114.499549	1363.650872	20.168000	-4.160000
	114.599555	1363.655632	20.138000	-4.160000
	114.699561	1363.653252	20.132000	-4.220000
	114.849569	1363.653252	20.132000	-4.220000
	114.949575	1363.646112	20.144000	-4.260000
	115.049581	1363.644922	20.170000	-4.210000
	115.149586	1363.644922	20.156000	-4.200000
	115.249592	1363.640162	20.144000	-4.240000
	115.349598	1363.649682	20.152000	-4.120000
	115.449604	1363.650872	20.138000	-4.190000
	115.549609	1363.649682	20.162000	-4.210000
	115.649615	1363.649682	20.162000	-4.200000
	115.749620	1363.654443	20.156000	-4.160000
	115.849627	1363.655633	20.162000	-4.190000
	115.949632	1363.655633	20.132000	-4.200000
	116.049638	1363.659203	20.170000	-4.170000
	116.149643	1363.655633	20.178000	-4.230000
	116.249649	1363.649683	20.156000	-4.250000
	116.349655	1363.650873	20.120000	-4.190000
	116.452661	1363.652063	20.148000	-4.190000
	116.549666	1363.658013	20.154000	-4.150000
	116.649672	1363.658013	20.154000	-4.150000
	116.749678	1363.660393	20.170000	-4.180000
	116.849684	1363.656823	20.134000	-4.230000
	116.949689	1363.655633	20.176000	-4.210000
	117.049695	1363.656823	20.184000	-4.190000
	117.149701	1363.652063	20.168000	-4.240000
	117.249706	1363.643733	20.138000	-4.270000
	117.349712	1363.650873	20.136000	-4.140000
	117.449718	1363.661584	20.184000	-4.110000
	117.549724	1363.661584	20.164000	-4.200000
	117.649729	1363.659204	20.160000	-4.220000
	117.749735	1363.659204	20.166000	-4.200000
	117.849741	1363.654444	20.148000	-4.240000
	117.949747	1363.650874	20.152000	-4.230000
	118.051753	1363.643734	20.130000	-4.260000
	118.149758	1363.643734	20.154000	-4.200000
	118.249763	1363.644924	20.144000	-4.190000
	118.349769	1363.644924	20.144000	-4.190000
	118.449775	1363.644924	20.168000	-4.200000
	118.549781	1363.648494	20.156000	-4.170000
	118.649786	1363.638974	20.114000	-4.280000
	118.749792	1363.640164	20.156000	-4.190000
	118.849798	1363.641354	20.168000	-4.190000
	118.949804	1363.638974	20.164000	-4.220000
	119.049809	1363.647305	20.172000	-4.130000
	119.149815	1363.650875	20.154000	-4.170000
	119.249821	1363.653255	20.156000	-4.180000
	119.349826	1363.646115	20.132000	-4.260000
	119.449832	1363.644925	20.148000	-4.210000
	119.549838	1363.649685	20.154000	-4.160000
	119.655844	1363.654445	20.136000	-4.160000
	119.749849	1363.650875	20.142000	-4.230000
	119.849855	1363.653255	20.156000	-4.180000
	119.949861	1363.653255	20.156000	-4.180000
	120.049867	1363.653255	20.152000	-4.200000
	120.149872	1363.650875	20.154000	-4.220000
	120.250878	1363.647305	20.140000	-4.230000
	120.349884	1363.646115	20.156000	-4.210000
	120.449890	1363.647305	20.140000	-4.190000
	120.549895	1363.641355	20.150000	-4.250000
	120.649901	1363.650876	20.140000	-4.120000
	120.749907	1363.652066	20.172000	-4.190000
	120.849912	1363.643736	20.142000	-4.270000
	120.949918	1363.641356	20.142000	-4.220000
	121.049924	1363.646116	20.158000	-4.160000
	121.152930	1363.653256	20.140000	-4.140000
	121.249935	1363.652066	20.152000	-4.210000
	121.349941	1363.659206	20.180000	-4.140000
	121.449946	1363.654446	20.144000	-4.240000
	121.549953	1363.656826	20.156000	-4.180000
	121.649958	1363.661587	20.128000	-4.160000
	121.749964	1363.656827	20.146000	-4.240000
	121.849969	1363.656827	20.180000	-4.200000
	121.949975	1363.656827	20.180000	-4.200000
	122.049981	1363.656827	20.162000	-4.200000
	122.149987	1363.654447	20.158000	-4.220000
	122.249992	1363.659207	20.128000	-4.160000
	122.349998	1363.656827	20.178000	-4.220000
	122.450004	1363.662777	20.162000	-4.150000
	122.550010	1363.660397	20.134000	-4.220000
	122.650015	1363.659207	20.144000	-4.210000
	122.750021	1363.659207	20.150000	-4.200000
	122.856027	1363.661587	20.172000	-4.180000
	122.950032	1363.659207	20.132000	-4.220000
	123.050038	1363.668727	20.142000	-4.120000
	123.150044	1363.671107	20.178000	-4.180000
	123.250050	1363.668727	20.162000	-4.220000
	123.350055	1363.667537	20.162000	-4.210000
	123.500064	1363.671108	20.138000	-4.170000
	123.600070	1363.678248	20.166000	-4.140000
	123.700075	1363.681818	20.138000	-4.170000
	123.800081	1363.683008	20.140000	-4.190000
	123.900087	1363.683008	20.142000	-4.200000
	124.000093	1363.681818	20.148000	-4.210000
	124.150101	1363.675868	20.166000	-4.250000
	124.250107	1363.680628	20.154000	-4.160000
	124.350112	1363.680628	20.154000	-4.160000
	124.450118	1363.680628	20.154000	-4.200000
	124.550124	1363.679438	20.156000	-4.210000
	124.650130	1363.678248	20.134000	-4.210000
	124.757136	1363.677058	20.132000	-4.210000
	124.850141	1363.683008	20.150000	-4.150000
	124.950147	1363.683008	20.150000	-4.150000
	125.050153	1363.679438	20.162000	-4.230000
	125.150158	1363.677058	20.136000	-4.220000
	125.250164	1363.679438	20.126000	-4.180000
	125.350170	1363.681818	20.156000	-4.180000
	125.450175	1363.678248	20.142000	-4.230000
	125.550181	1363.677058	20.126000	-4.210000
	125.650187	1363.678248	20.138000	-4.190000
	125.750193	1363.680629	20.164000	-4.180000
	125.850198	1363.680629	20.138000	-4.200000
	125.951204	1363.675868	20.150000	-4.240000
	126.050210	1363.671108	20.146000	-4.240000
	126.150216	1363.668728	20.138000	-4.220000
	126.250221	1363.662778	20.138000	-4.250000
	126.350227	1363.666348	20.176000	-4.170000
	126.450233	1363.678249	20.138000	-4.100000
	126.550239	1363.671109	20.142000	-4.260000
	126.650244	1363.669919	20.150000	-4.210000
	126.750250	1363.673489	20.156000	-4.170000
	126.850255	1363.673489	20.156000	-4.170000
	126.950261	1363.674679	20.148000	-4.190000
	127.050267	1363.677059	20.162000	-4.180000
	127.150273	1363.674679	20.138000	-4.220000
	127.250278	1363.673489	20.158000	-4.210000
	127.350284	1363.683010	20.150000	-4.120000
	127.450290	1363.684200	20.150000	-4.190000
	127.550296	1363.663971	20.180000	-4.370000
	127.651301	1363.668731	20.170000	-4.160000
	127.750307	1363.665161	20.140000	-4.230000
	127.850313	1363.672301	20.156000	-4.140000
	127.950318	1363.674681	20.142000	-4.180000
	128.050324	1363.679442	20.152000	-4.160000
	128.150330	1363.674681	20.138000	-4.240000
	128.250336	1363.672301	20.132000	-4.220000
	128.350341	1363.677062	20.144000	-4.160000
	128.450347	1363.674682	20.152000	-4.220000
	128.600356	1363.674682	20.152000	-4.220000
	128.700361	1363.675872	20.156000	-4.190000
	128.800367	1363.678252	20.154000	-4.180000
	128.900373	1363.681822	20.154000	-4.170000
	129.000379	1363.684202	20.146000	-4.180000
	129.100384	1363.685392	20.138000	-4.190000
	129.200390	1363.684202	20.150000	-4.210000
	129.300396	1363.681822	20.164000	-4.220000
	129.400402	1363.680632	20.142000	-4.210000
	129.500407	1363.686582	20.144000	-4.150000
	129.600413	1363.687772	20.158000	-4.190000
	129.700418	1363.681822	20.164000	-4.250000
	129.800424	1363.677062	20.162000	-4.240000
	129.900430	1363.679442	20.126000	-4.180000
	130.000436	1363.678252	20.156000	-4.210000
	130.102441	1363.678252	20.158000	-4.200000
	130.199447	1363.674682	20.152000	-4.230000
	130.299453	1363.674682	20.152000	-4.230000
	130.399458	1363.674682	20.140000	-4.200000
	130.499464	1363.679442	20.162000	-4.160000
	130.599470	1363.677062	20.140000	-4.220000
	130.699476	1363.678252	20.134000	-4.190000
	130.799481	1363.681822	20.150000	-4.170000
	130.899487	1363.685393	20.142000	-4.170000
	130.999493	1363.691343	20.162000	-4.150000
	131.099499	1363.692533	20.138000	-4.190000
	131.199504	1363.699673	20.152000	-4.140000
	131.299510	1363.700863	20.152000	-4.190000
	131.399516	1363.703244	20.136000	-4.180000
	131.499521	1363.706814	20.134000	-4.170000
	131.599527	1363.705624	20.166000	-4.210000
	131.699533	1363.700864	20.144000	-4.240000
	131.800539	1363.694913	20.154000	-4.250000
	131.899544	1363.691343	20.168000	-4.230000
	131.999550	1363.691343	20.154000	-4.200000
	132.099556	1363.686583	20.154000	-4.240000
	132.199562	1363.688963	20.142000	-4.180000
	132.299567	1363.687773	20.138000	-4.210000
	132.399573	1363.687773	20.154000	-4.200000
	132.499578	1363.687773	20.140000	-4.200000
	132.599585	1363.697294	20.156000	-4.120000
	132.749593	1363.699674	20.146000	-4.180000
	132.849599	1363.694914	20.146000	-4.240000
	132.949605	1363.690154	20.126000	-4.240000
	133.049610	1363.691344	20.144000	-4.190000
	133.149616	1363.681824	20.152000	-4.280000
	133.249621	1363.690154	20.152000	-4.130000
	133.349627	1363.690154	20.152000	-4.130000
	133.449633	1363.690154	20.168000	-4.200000
	133.549639	1363.692535	20.162000	-4.180000
	133.649644	1363.692535	20.150000	-4.200000
	133.749650	1363.686584	20.164000	-4.250000
	133.849656	1363.692535	20.152000	-4.150000
	133.949662	1363.688965	20.148000	-4.230000
	134.049667	1363.694915	20.150000	-4.150000
	134.149673	1363.691345	20.162000	-4.230000
	134.250679	1363.698485	20.164000	-4.140000
	134.349685	1363.702056	20.154000	-4.170000
	134.449690	1363.700866	20.120000	-4.210000
	134.549696	1363.702056	20.148000	-4.190000
	134.649702	1363.710386	20.150000	-4.130000
	134.749707	1363.713956	20.140000	-4.170000
	134.849713	1363.709196	20.156000	-4.240000
	134.949719	1363.697296	20.152000	-4.300000
	135.099728	1363.690156	20.150000	-4.260000
	135.201733	1363.697297	20.136000	-4.140000
	135.299739	1363.697297	20.136000	-4.140000
	135.399745	1363.696107	20.178000	-4.210000
	135.499750	1363.693726	20.116000	-4.220000
	135.599756	1363.693726	20.162000	-4.200000
	135.700762	1363.696107	20.132000	-4.180000
	135.799767	1363.702057	20.166000	-4.150000
	135.899773	1363.699677	20.170000	-4.220000
	135.999779	1363.698487	20.140000	-4.210000
	136.099785	1363.700867	20.134000	-4.180000
	136.199790	1363.703247	20.146000	-4.180000
	136.299796	1363.698487	20.166000	-4.240000
	136.399802	1363.699677	20.144000	-4.190000
	136.501808	1363.699677	20.162000	-4.200000
	136.600813	1363.704437	20.126000	-4.160000
	136.699819	1363.699677	20.154000	-4.240000
	136.799825	1363.698487	20.140000	-4.210000
	136.899830	1363.696107	20.154000	-4.220000
	136.999836	1363.697297	20.156000	-4.190000
	137.099842	1363.694917	20.158000	-4.220000
	137.199848	1363.694917	20.158000	-4.220000
	137.299853	1363.700867	20.128000	-4.150000
	137.399859	1363.704438	20.156000	-4.170000
	137.499865	1363.698487	20.146000	-4.250000
	137.599870	1363.705628	20.156000	-4.140000
	137.699876	1363.710388	20.140000	-4.160000
	137.799882	1363.712768	20.140000	-4.180000
	137.899888	1363.699678	20.150000	-4.310000
	137.999893	1363.697298	20.140000	-4.220000
	138.102899	1363.706819	20.152000	-4.120000
	138.199905	1363.708009	20.162000	-4.190000
	138.299911	1363.699679	20.156000	-4.270000
	138.399916	1363.703249	20.158000	-4.170000
	138.499922	1363.702059	20.128000	-4.210000
	138.599927	1363.705629	20.140000	-4.170000
	138.699934	1363.702059	20.136000	-4.230000
	138.799939	1363.702059	20.136000	-4.230000
	138.899945	1363.699679	20.148000	-4.220000
	138.999950	1363.706819	20.160000	-4.140000
	139.099956	1363.706819	20.130000	-4.200000
	139.200962	1363.704439	20.134000	-4.220000
	139.299968	1363.705629	20.124000	-4.190000
	139.399973	1363.710390	20.160000	-4.160000
	139.499979	1363.702060	20.116000	-4.270000
	139.599985	1363.698489	20.166000	-4.230000
	139.704991	1363.705630	20.134000	-4.140000
	139.799996	1363.709200	20.144000	-4.170000
	139.900002	1363.713960	20.144000	-4.160000
	140.000008	1363.705630	20.134000	-4.270000
	140.100013	1363.703250	20.154000	-4.220000
	140.200019	1363.703250	20.146000	-4.200000
	140.300025	1363.703250	20.144000	-4.200000
	140.400031	1363.706820	20.124000	-4.170000
	140.550039	1363.827082	20.442000	-3.190000
	140.650045	1363.797331	20.244000	-4.450000
	140.750051	1363.781860	20.124000	-4.330000
	140.850056	1363.762819	20.134000	-4.360000
	140.950062	1363.755679	20.144000	-4.260000
	141.050068	1363.749728	20.152000	-4.250000
	141.150074	1363.749728	20.152000	-4.250000
	141.250079	1363.741398	20.156000	-4.270000
	141.350085	1363.731877	20.134000	-4.280000
	141.450090	1363.727117	20.152000	-4.240000
	141.550097	1363.717597	20.152000	-4.280000
	141.654102	1363.717597	20.142000	-4.200000
	141.800111	1363.715217	20.134000	-4.220000
	141.900116	1363.710457	20.134000	-4.240000
	142.000122	1363.711647	20.162000	-4.190000
	142.100128	1363.715217	20.142000	-4.170000
	142.200133	1363.714027	20.150000	-4.210000
	142.300139	1363.709267	20.144000	-4.240000
	142.400145	1363.704507	20.144000	-4.240000
	142.500151	1363.708077	20.142000	-4.170000
	142.601156	1363.708077	20.128000	-4.200000
	142.708162	1363.712837	20.140000	-4.160000
	142.800168	1363.710457	20.166000	-4.220000
	142.900174	1363.709267	20.134000	-4.210000
	143.000179	1363.706887	20.152000	-4.220000
	143.102185	1363.704507	20.156000	-4.220000
	143.200191	1363.710457	20.138000	-4.150000
	143.300197	1363.709267	20.108000	-4.210000
	143.450205	1363.710457	20.122000	-4.190000
	143.550211	1363.710457	20.122000	-4.190000
	143.650217	1363.709267	20.168000	-4.210000
	143.750222	1363.709267	20.134000	-4.200000
	143.850228	1363.712837	20.150000	-4.170000
	143.950233	1363.708077	20.156000	-4.240000
	144.050240	1363.706887	20.146000	-4.210000
	144.150245	1363.703317	20.144000	-4.230000
	144.253251	1363.702127	20.150000	-4.210000
	144.350256	1363.705697	20.152000	-4.170000
	144.450262	1363.708077	20.146000	-4.180000
	144.550268	1363.712838	20.132000	-4.160000
	144.650274	1363.711648	20.124000	-4.210000
	144.750279	1363.710457	20.138000	-4.210000
	144.850285	1363.716408	20.144000	-4.150000
	144.950291	1363.723548	20.140000	-4.140000
	145.056297	1363.727119	20.126000	-4.170000
	145.150302	1363.729499	20.124000	-4.180000
	145.250308	1363.730689	20.170000	-4.190000
	145.350314	1363.734259	20.142000	-4.170000
	145.450319	1363.739020	20.128000	-4.160000
	145.550325	1363.739020	20.128000	-4.160000
	145.650331	1363.733069	20.136000	-4.250000
	145.750337	1363.730689	20.124000	-4.220000
	145.850342	1363.727119	20.152000	-4.230000
	145.952348	1363.727119	20.162000	-4.200000
	146.050354	1363.723549	20.140000	-4.230000
	146.150360	1363.715219	20.148000	-4.270000
	146.250365	1363.721169	20.150000	-4.150000
	146.350371	1363.721169	20.150000	-4.200000
	146.453377	1363.717599	20.124000	-4.230000
	146.600385	1363.717599	20.136000	-4.200000
	146.700391	1363.712839	20.160000	-4.240000
	146.800396	1363.711649	20.130000	-4.210000
	146.900403	1363.705698	20.146000	-4.250000
	147.000408	1363.710459	20.132000	-4.160000
	147.101414	1363.712839	20.174000	-4.180000
	147.200419	1363.712839	20.174000	-4.180000
	147.300425	1363.699749	20.148000	-4.310000
	147.401431	1363.698559	20.164000	-4.210000
	147.500437	1363.710460	20.134000	-4.100000
	147.600442	1363.712840	20.144000	-4.180000
	147.699448	1363.711650	20.164000	-4.210000
	147.799454	1363.712840	20.128000	-4.190000
	147.899459	1363.714030	20.162000	-4.190000
	147.999465	1363.719981	20.132000	-4.150000
	148.099471	1363.717600	20.136000	-4.220000
	148.199477	1363.715220	20.138000	-4.220000
	148.299482	1363.711650	20.124000	-4.230000
	148.407488	1363.704510	20.156000	-4.260000
	148.502494	1363.703320	20.144000	-4.210000
	148.599500	1363.714031	20.136000	-4.110000
	148.699505	1363.714031	20.152000	-4.200000
	148.799511	1363.717601	20.136000	-4.170000
	148.901517	1363.715221	20.148000	-4.220000
	148.999522	1363.712841	20.144000	-4.220000
	149.149531	1363.716411	20.134000	-4.170000
	149.249537	1363.711651	20.144000	-4.240000
	149.349543	1363.716411	20.116000	-4.160000
	149.449548	1363.717601	20.162000	-4.190000
	149.599557	1363.724742	20.142000	-4.140000
	149.649559	1363.719982	20.150000	-4.240000
	149.804568	1363.724742	20.146000	-4.160000
	149.899574	1363.724742	20.140000	-4.200000
	150.049582	1363.722362	20.158000	-4.220000
	150.149588	1363.718792	20.136000	-4.230000
	150.249594	1363.727122	20.136000	-4.130000
	150.349600	1363.718792	20.134000	-4.270000
	150.449605	1363.718792	20.132000	-4.200000
	150.549611	1363.715222	20.128000	-4.230000
	150.649617	1363.715222	20.156000	-4.200000
	150.749622	1363.717602	20.158000	-4.180000
	150.849628	1363.717602	20.158000	-4.180000
	150.949634	1363.714032	20.154000	-4.230000
	151.049640	1363.711652	20.140000	-4.220000
	151.149645	1363.723553	20.136000	-4.100000
	151.249651	1363.715223	20.140000	-4.270000
	151.349657	1363.710463	20.128000	-4.240000
	151.449663	1363.717603	20.148000	-4.140000
	151.551669	1363.718793	20.138000	-4.190000
	151.649674	1363.719983	20.154000	-4.190000
	151.749680	1363.719983	20.146000	-4.200000
	151.849686	1363.725934	20.138000	-4.150000
	151.949691	1363.727124	20.150000	-4.190000
	152.049697	1363.716414	20.118000	-4.290000
	152.199706	1363.721174	20.154000	-4.160000
	152.299711	1363.727124	20.136000	-4.150000
	152.399717	1363.728315	20.136000	-4.190000
	152.506723	1363.733075	20.136000	-4.160000
	152.599728	1363.736645	20.120000	-4.170000
	152.699734	1363.739025	20.156000	-4.180000
	152.799740	1363.742596	20.136000	-4.170000
	152.899745	1363.747356	20.126000	-4.160000
	152.999751	1363.747356	20.126000	-4.160000
	153.099757	1363.746166	20.114000	-4.210000
	153.199763	1363.741406	20.132000	-4.240000
	153.299768	1363.746166	20.140000	-4.160000
	153.399774	1363.737836	20.138000	-4.270000
	153.499780	1363.734266	20.158000	-4.230000
	153.599785	1363.736646	20.144000	-4.180000
	153.699791	1363.741406	20.148000	-4.160000
	153.799797	1363.734266	20.136000	-4.260000
	153.899803	1363.728316	20.144000	-4.250000
	154.002809	1363.737837	20.146000	-4.120000
	154.099814	1363.739027	20.164000	-4.190000
	154.199820	1363.743787	20.154000	-4.160000
	154.299826	1363.731887	20.128000	-4.300000
	154.399831	1363.735457	20.132000	-4.170000
	154.499837	1363.737837	20.124000	-4.180000
	154.599843	1363.737837	20.124000	-4.180000
	154.699849	1363.731887	20.120000	-4.250000
	154.799854	1363.740218	20.124000	-4.130000
	154.899860	1363.735457	20.134000	-4.240000
	154.999866	1363.735457	20.140000	-4.200000
	155.099871	1363.741408	20.120000	-4.150000
	155.199877	1363.740218	20.122000	-4.210000
	155.299883	1363.737838	20.146000	-4.220000
	155.399889	1363.740218	20.142000	-4.180000
	155.499894	1363.737838	20.140000	-4.220000
	155.599900	1363.734268	20.140000	-4.230000
	155.705906	1363.736648	20.150000	-4.180000
	155.799911	1363.737838	20.126000	-4.190000
	155.899917	1363.741408	20.152000	-4.170000
	155.999923	1363.741408	20.152000	-4.200000
	156.099928	1363.735458	20.122000	-4.250000
	156.199934	1363.737838	20.144000	-4.180000
	156.299940	1363.737838	20.144000	-4.180000
	156.399946	1363.737838	20.152000	-4.200000
	156.499951	1363.733078	20.142000	-4.240000
	156.599957	1363.736648	20.146000	-4.170000
	156.699963	1363.740218	20.140000	-4.170000
	156.799969	1363.743789	20.142000	-4.170000
	156.899974	1363.748549	20.124000	-4.160000
	156.999980	1363.758070	20.146000	-4.120000
	157.099986	1363.750930	20.142000	-4.260000
	157.199991	1363.756880	20.134000	-4.150000
	157.303998	1363.750930	20.144000	-4.250000
	157.400003	1363.756881	20.150000	-4.150000
	157.500009	1363.765212	20.138000	-4.130000
	157.600014	1363.760451	20.130000	-4.240000
	157.700020	1363.754501	20.120000	-4.250000
	157.800026	1363.752121	20.142000	-4.220000
	157.950034	1363.755691	20.156000	-4.170000
	158.050040	1363.754501	20.146000	-4.210000
	158.150046	1363.756881	20.102000	-4.180000
	158.250051	1363.759261	20.128000	-4.180000
	158.350057	1363.755691	20.142000	-4.230000
	158.450063	1363.756881	20.110000	-4.190000
	158.600071	1363.764022	20.136000	-4.140000
	158.700077	1363.764022	20.154000	-4.200000
	158.800083	1363.764022	20.144000	-4.200000
	158.900089	1363.773543	20.128000	-4.120000
	159.000094	1363.772353	20.152000	-4.210000
	159.100100	1363.775923	20.126000	-4.170000
	159.200106	1363.778304	20.138000	-4.180000
	159.300111	1363.784254	20.146000	-4.150000
	159.400117	1363.786635	20.126000	-4.180000
	159.550126	1363.781874	20.150000	-4.240000
	159.650132	1363.783064	20.134000	-4.190000
	159.750137	1363.780684	20.138000	-4.220000
	159.850143	1363.775924	20.118000	-4.240000
	159.950149	1363.771163	20.118000	-4.240000
	160.050154	1363.775924	20.128000	-4.160000
	160.150160	1363.777114	20.136000	-4.190000
	160.300169	1363.769974	20.142000	-4.260000
	160.400175	1363.773544	20.144000	-4.170000
	160.500180	1363.765213	20.174000	-4.270000
	160.600186	1363.765213	20.126000	-4.200000
	160.750195	1363.760453	20.156000	-4.240000
	160.850200	1363.759263	20.132000	-4.210000
	160.950206	1363.765214	20.138000	-4.150000
	161.050211	1363.765214	20.138000	-4.150000
	161.150218	1363.762833	20.144000	-4.220000
	161.250223	1363.758073	20.156000	-4.240000
	161.350229	1363.755693	20.150000	-4.220000
	161.451235	1363.758073	20.150000	-4.180000
	161.550240	1363.759263	20.136000	-4.190000
	161.656246	1363.761643	20.142000	-4.180000
	161.750252	1363.761643	20.124000	-4.200000
	161.850257	1363.756883	20.148000	-4.240000
	161.950263	1363.756883	20.146000	-4.200000
	162.050269	1363.769975	20.130000	-4.090000
	162.150275	1363.780686	20.136000	-4.110000
	162.300283	1363.775926	20.130000	-4.240000
	162.400289	1363.774736	20.124000	-4.210000
	162.501295	1363.774736	20.142000	-4.200000
	162.600300	1363.777116	20.156000	-4.180000
	162.702306	1363.772356	20.146000	-4.240000
	162.850315	1363.766405	20.146000	-4.250000
	162.950320	1363.762835	20.130000	-4.230000
	163.050326	1363.759265	20.138000	-4.230000
	163.150332	1363.755694	20.152000	-4.230000
	163.250338	1363.749744	20.136000	-4.250000
	163.350343	1363.755695	20.142000	-4.150000
	163.450349	1363.758075	20.154000	-4.180000
	163.550354	1363.758075	20.154000	-4.180000
	163.653360	1363.755695	20.154000	-4.220000
	163.800369	1363.753314	20.130000	-4.220000
	163.850372	1363.750934	20.168000	-4.220000
	164.000381	1363.752124	20.176000	-4.190000
	164.103386	1363.752124	20.162000	-4.200000
	164.200392	1363.744984	20.154000	-4.260000
	164.300397	1363.748554	20.148000	-4.170000
	164.350400	1363.746174	20.138000	-4.220000
	164.503409	1363.746174	20.138000	-4.220000
	164.600415	1363.739034	20.136000	-4.260000
	164.700420	1363.746174	20.140000	-4.140000
	164.800426	1363.742604	20.148000	-4.230000
	164.900432	1363.744984	20.142000	-4.180000
	165.001438	1363.750935	20.122000	-4.150000
	165.099443	1363.750935	20.120000	-4.200000
	165.199449	1363.743795	20.158000	-4.260000
	165.299455	1363.749745	20.122000	-4.150000
	165.399460	1363.754506	20.154000	-4.160000
	165.502466	1363.759266	20.160000	-4.160000
	165.599472	1363.759266	20.160000	-4.160000
	165.701478	1363.760456	20.128000	-4.190000
	165.799483	1363.759266	20.154000	-4.210000
	165.899489	1363.753316	20.146000	-4.250000
	165.999495	1363.749745	20.130000	-4.230000
	166.099501	1363.752126	20.150000	-4.180000
	166.244509	1363.749746	20.172000	-4.220000
	166.299512	1363.743795	20.126000	-4.250000
	166.449521	1363.743795	20.126000	-4.250000
	166.549526	1363.739035	20.144000	-4.240000
	166.651532	1363.741415	20.146000	-4.180000
	166.752538	1363.737845	20.138000	-4.230000
	166.849544	1363.737845	20.182000	-4.200000
	166.949549	1363.743795	20.158000	-4.150000
	167.049555	1363.746176	20.150000	-4.180000
	167.149560	1363.749746	20.144000	-4.170000
	167.249566	1363.748556	20.152000	-4.210000
	167.399575	1363.752126	20.150000	-4.170000
	167.500581	1363.754506	20.134000	-4.180000
	167.599586	1363.747366	20.122000	-4.260000
	167.699592	1363.746176	20.138000	-4.210000
	167.851601	1363.742606	20.148000	-4.230000
	167.949606	1363.748556	20.158000	-4.150000
	168.049612	1363.753317	20.150000	-4.160000
	168.149618	1363.753317	20.162000	-4.200000
	168.299626	1363.754507	20.126000	-4.190000
	168.399632	1363.754507	20.126000	-4.190000
	168.499638	1363.758077	20.138000	-4.170000
	168.599644	1363.762838	20.134000	-4.160000
	168.699649	1363.756887	20.138000	-4.250000
	168.799655	1363.758077	20.152000	-4.190000
	168.899661	1363.759267	20.170000	-4.190000
	168.999666	1363.761648	20.130000	-4.180000
	169.106673	1363.764028	20.128000	-4.180000
	169.223679	1363.767598	20.132000	-4.170000
	169.299684	1363.768788	20.166000	-4.190000
	169.399689	1363.768788	20.166000	-4.190000
	169.499695	1363.773549	20.168000	-4.170000
	169.599701	1363.774739	20.152000	-4.190000
	169.749709	1363.774739	20.136000	-4.200000
	169.849715	1363.772359	20.132000	-4.220000
	169.949721	1363.779500	20.144000	-4.140000
	170.049726	1363.780690	20.136000	-4.190000
	170.199735	1363.779500	20.154000	-4.210000
	170.299741	1363.779500	20.154000	-4.210000
	170.399746	1363.783070	20.124000	-4.170000
	170.499752	1363.790211	20.140000	-4.140000
	170.599758	1363.792591	20.156000	-4.180000
	170.699764	1363.787831	20.116000	-4.240000
	170.799769	1363.789021	20.146000	-4.190000
	170.899775	1363.787831	20.150000	-4.210000
	170.999781	1363.786641	20.130000	-4.210000
	171.099787	1363.789021	20.144000	-4.180000
	171.199792	1363.785451	20.160000	-4.230000
	171.304798	1363.781880	20.126000	-4.230000
	171.399804	1363.786641	20.138000	-4.160000
	171.499809	1363.787831	20.138000	-4.190000
	171.599815	1363.787831	20.168000	-4.200000
	171.699821	1363.787831	20.124000	-4.200000
	171.799827	1363.790211	20.154000	-4.180000
	171.899832	1363.787831	20.156000	-4.220000
	171.999838	1363.809255	20.140000	-4.020000
	172.099844	1363.792594	20.108000	-4.340000
	172.249852	1363.789024	20.158000	-4.230000
	172.349858	1363.784263	20.142000	-4.240000
	172.454864	1363.785453	20.162000	-4.190000
	172.560870	1363.787834	20.150000	-4.180000
	172.649875	1363.787834	20.168000	-4.200000
	172.749881	1363.790214	20.148000	-4.180000
	172.849886	1363.797355	20.142000	-4.140000
	172.952892	1363.791404	20.158000	-4.250000
	173.099901	1363.794975	20.128000	-4.170000
	173.199907	1363.781884	20.152000	-4.310000
	173.299912	1363.781884	20.152000	-4.310000
	173.399918	1363.786645	20.152000	-4.170000
	173.549927	1363.787835	20.164000	-4.190000
	173.649932	1363.787835	20.164000	-4.190000
	173.749938	1363.787835	20.148000	-4.220000
	173.849944	1363.785455	20.130000	-4.220000
	173.999952	1363.787835	20.138000	-4.180000
	174.099958	1363.786645	20.138000	-4.210000
	174.199964	1363.786645	20.162000	-4.200000
	174.299970	1363.786645	20.152000	-4.200000
	174.399975	1363.781884	20.146000	-4.240000
	174.549984	1363.775934	20.126000	-4.250000
	174.649990	1363.771173	20.144000	-4.240000
	174.749995	1363.768793	20.150000	-4.220000
	174.850001	1363.774744	20.118000	-4.150000
	175.000010	1363.771174	20.130000	-4.230000
	175.100015	1363.771174	20.152000	-4.200000
	175.202021	1363.769983	20.152000	-4.210000
	175.300027	1363.779505	20.156000	-4.120000
	175.450035	1363.779505	20.156000	-4.200000
	175.550041	1363.778315	20.148000	-4.210000
	175.650047	1363.775934	20.128000	-4.220000
	175.750052	1363.783075	20.154000	-4.140000
	175.900061	1363.781885	20.144000	-4.210000
	176.000067	1363.779505	20.138000	-4.220000
	176.100072	1363.783075	20.164000	-4.170000
	176.200078	1363.784265	20.174000	-4.190000
	176.301084	1363.815212	19.984000	-3.940000
	176.450092	1363.841398	20.018000	-3.980000
	176.550098	1363.869966	19.984000	-3.960000
	176.650104	1363.886630	19.998000	-4.060000
	176.806113	1363.899723	19.988000	-4.090000
	176.900118	1363.914006	19.996000	-4.080000
	177.000124	1363.928290	20.006000	-4.080000
	177.100130	1363.931861	19.990000	-4.170000
	177.200135	1363.933051	19.994000	-4.190000
	177.350144	1363.933051	19.976000	-4.200000
	177.450150	1363.944954	19.994000	-4.100000
	177.550156	1363.942574	20.024000	-4.220000
	177.650161	1363.943764	19.992000	-4.190000
	177.800170	1363.948525	20.004000	-4.160000
	177.900176	1363.948525	19.994000	-4.200000
	178.000181	1363.942574	19.978000	-4.250000
	178.100187	1363.948525	20.038000	-4.150000
	178.200192	1363.959238	20.012000	-4.110000
	178.350201	1363.959238	20.012000	-4.110000
	178.454207	1363.971141	20.012000	-4.100000
	178.550213	1363.967570	19.990000	-4.210000
	178.650218	1363.973522	19.976000	-4.150000
	178.800227	1363.980664	19.996000	-4.140000
	178.900233	1363.980664	20.004000	-4.200000
	179.000238	1363.980664	20.002000	-4.200000
	179.101244	1363.973522	20.008000	-4.260000
	179.250253	1363.971142	20.000000	-4.220000
	179.350258	1363.975903	19.994000	-4.160000
	179.450264	1363.975903	19.996000	-4.200000
	179.601273	1363.981855	19.996000	-4.150000
	179.650276	1363.983045	19.992000	-4.190000
	179.800284	1363.969952	19.990000	-4.310000
	179.900290	1363.973523	19.990000	-4.170000
	180.000296	1363.973523	19.990000	-4.170000
	180.100301	1363.967572	19.994000	-4.250000
	180.200307	1363.968762	19.978000	-4.190000
	180.300313	1363.974714	19.994000	-4.150000
	180.400319	1363.964002	20.006000	-4.290000
	180.500324	1363.964002	19.984000	-4.200000
	180.700336	1363.966382	19.986000	-4.180000
	180.800341	1363.969953	20.026000	-4.170000
	180.950350	1363.967572	19.986000	-4.220000
	181.050355	1363.971143	19.994000	-4.170000
	181.150362	1363.974714	20.000000	-4.170000
	181.278368	1363.980666	19.982000	-4.150000
	181.400376	1363.977095	19.994000	-4.230000
	181.502381	1363.983047	19.994000	-4.150000
	181.600387	1363.983047	19.990000	-4.200000
	181.705393	1363.993760	20.000000	-4.110000
	181.800398	1363.993760	19.974000	-4.200000
	181.950407	1363.998521	19.986000	-4.160000
	182.050413	1363.996140	19.994000	-4.220000
	182.153419	1363.999711	20.006000	-4.170000
	182.250424	1363.997331	19.992000	-4.220000
	182.350430	1363.998521	20.012000	-4.190000
	182.450436	1363.997331	19.958000	-4.210000
	182.550441	1363.993760	19.974000	-4.230000
	182.707450	1363.993760	19.974000	-4.230000
	182.799456	1363.990189	20.002000	-4.230000
	182.899461	1363.988999	19.984000	-4.210000
	182.999467	1363.986618	19.988000	-4.220000
	183.099473	1363.980667	19.994000	-4.250000
	183.199479	1363.988999	19.992000	-4.130000
	183.299484	1363.987809	19.998000	-4.210000
	183.400490	1363.986619	20.010000	-4.210000
	183.502496	1363.985428	19.998000	-4.210000
	183.549499	1363.974716	20.016000	-4.290000
	183.699507	1363.974716	20.016000	-4.290000
	183.799513	1363.969955	19.976000	-4.240000
	183.899518	1363.962813	19.988000	-4.260000
	183.999524	1363.961623	20.008000	-4.210000
	184.099530	1363.967575	19.976000	-4.150000
	184.199536	1363.972336	19.982000	-4.160000
	184.299541	1363.978287	19.980000	-4.150000
	184.399547	1363.972336	20.002000	-4.250000
	184.509553	1363.967575	19.982000	-4.240000
	184.599559	1363.967575	19.984000	-4.200000
	184.699564	1363.967575	19.984000	-4.200000
	184.799570	1363.969956	19.986000	-4.180000
	184.899576	1363.966385	19.994000	-4.230000
	184.999581	1363.968765	20.008000	-4.180000
	185.099587	1363.964004	19.982000	-4.240000
	185.199593	1363.961624	20.000000	-4.220000
	185.299599	1363.972337	19.986000	-4.110000
	185.402605	1363.977098	20.008000	-4.160000
	185.499610	1363.974717	19.998000	-4.220000
	185.599616	1363.973527	20.008000	-4.210000
	185.699622	1363.967576	19.994000	-4.250000
	185.799627	1363.972337	20.000000	-4.160000
	185.899633	1363.969956	19.998000	-4.220000
	186.050642	1363.965195	19.994000	-4.240000
	186.149647	1363.961625	20.012000	-4.230000
	186.249653	1363.965195	19.988000	-4.170000
	186.349659	1363.969957	19.988000	-4.160000
	186.499667	1363.968766	19.968000	-4.210000
	186.599673	1363.967576	20.002000	-4.210000
	186.699679	1363.967576	20.000000	-4.200000
	186.799685	1363.968766	19.984000	-4.190000
	186.951693	1363.965196	20.000000	-4.230000
	187.050699	1363.960434	19.988000	-4.240000
	187.149704	1363.960434	20.008000	-4.200000
	187.250710	1363.954483	19.970000	-4.250000
	187.349716	1363.962815	19.994000	-4.130000
	187.499724	1363.967577	19.988000	-4.160000
	187.599730	1363.972338	19.986000	-4.160000
	187.699736	1363.967577	20.004000	-4.240000
	187.799742	1363.967577	20.004000	-4.240000
	187.949750	1363.968767	19.982000	-4.190000
	188.049756	1363.968767	19.996000	-4.200000
	188.149762	1363.969957	19.992000	-4.190000
	188.249767	1363.971148	19.996000	-4.190000
	188.349773	1363.973528	19.994000	-4.180000
	188.449779	1363.984241	19.996000	-4.110000
	188.549785	1363.989003	19.982000	-4.160000
	188.649790	1363.991383	19.982000	-4.180000
	188.749796	1363.996145	20.000000	-4.160000
	188.799799	1363.993764	19.976000	-4.220000
	188.949808	1363.992574	19.994000	-4.210000
	188.999810	1363.997335	19.988000	-4.160000
	189.149819	1363.991383	19.970000	-4.250000
	189.249825	1363.987813	19.996000	-4.230000
	189.351830	1363.975910	19.994000	-4.300000
	189.454836	1363.979481	20.004000	-4.170000
	189.549842	1363.980671	19.988000	-4.190000
	189.649848	1363.980671	19.988000	-4.190000
	189.749853	1363.987813	19.984000	-4.140000
	189.849859	1363.986623	19.968000	-4.210000
	189.949865	1363.989004	20.002000	-4.180000
	190.049870	1363.989004	19.954000	-4.200000
	190.149876	1363.999717	19.976000	-4.110000
	190.249882	1364.002097	19.990000	-4.180000
	190.349887	1364.000907	19.990000	-4.210000
	190.449893	1363.997336	19.984000	-4.230000
	190.549899	1364.006859	19.976000	-4.120000
	190.656905	1364.005669	19.990000	-4.210000
	190.749910	1363.994956	19.976000	-4.290000
	190.849916	1363.998527	19.982000	-4.170000
	190.949922	1363.997337	19.990000	-4.210000
	191.050928	1363.996147	19.970000	-4.210000
	191.149933	1364.000908	20.006000	-4.160000
	191.299942	1364.000908	20.006000	-4.160000
	191.399948	1363.998527	19.990000	-4.220000
	191.499953	1364.002098	19.984000	-4.170000
	191.599959	1364.010431	19.972000	-4.130000
	191.699965	1364.002099	19.988000	-4.270000
	191.799971	1364.000908	20.002000	-4.210000
	191.899976	1363.993767	19.978000	-4.260000
	191.999982	1363.991386	19.976000	-4.220000
	192.099988	1363.992577	19.998000	-4.190000
	192.201993	1363.987815	20.002000	-4.240000
	192.299999	1363.991386	19.978000	-4.170000
	192.400005	1364.000909	19.970000	-4.120000
	192.500010	1364.000909	20.006000	-4.200000
	192.600016	1364.008051	20.008000	-4.140000
	192.700022	1364.009242	19.996000	-4.190000
	192.803028	1364.006861	19.980000	-4.220000
	192.900033	1364.008051	19.994000	-4.190000
	193.001039	1364.008051	19.994000	-4.190000
	193.102045	1364.003290	19.990000	-4.240000
	193.200050	1363.999719	19.992000	-4.230000
	193.300056	1364.003290	19.998000	-4.170000
	193.400062	1364.003290	19.994000	-4.200000
	193.500068	1364.003290	19.982000	-4.200000
	193.600073	1364.006861	19.988000	-4.170000
	193.700079	1363.998529	20.000000	-4.270000
	193.800085	1363.996148	19.994000	-4.220000
	193.900091	1363.999719	19.972000	-4.170000
	194.002097	1363.997339	19.982000	-4.220000
	194.111103	1363.996149	19.996000	-4.210000
	194.200108	1363.996149	19.996000	-4.210000
	194.300113	1363.999720	19.986000	-4.170000
	194.400119	1363.999720	19.984000	-4.200000
	194.500125	1364.003291	19.988000	-4.170000
	194.600131	1364.010433	19.996000	-4.140000
	194.700136	1364.011623	20.000000	-4.190000
	194.800142	1364.012813	19.980000	-4.190000
	194.900148	1364.016384	19.984000	-4.170000
	195.008154	1364.010433	19.960000	-4.250000
	195.100159	1364.017575	20.008000	-4.140000
	195.200165	1364.019956	19.980000	-4.180000
	195.300170	1364.024717	19.974000	-4.160000
	195.400177	1364.024717	19.974000	-4.160000
	195.500182	1364.025907	19.958000	-4.190000
	195.600188	1364.031859	19.990000	-4.150000
	195.700193	1364.031859	19.968000	-4.200000
	195.800199	1364.029479	19.988000	-4.220000
	195.900205	1364.033050	19.976000	-4.170000
	196.001211	1364.028288	20.004000	-4.240000
	196.100216	1364.021146	19.978000	-4.260000
	196.200222	1364.017575	20.000000	-4.230000
	196.306228	1364.018766	19.964000	-4.190000
	196.400234	1364.023527	19.988000	-4.160000
	196.500239	1364.022337	19.970000	-4.210000
	196.600245	1364.021147	19.988000	-4.210000
	196.700251	1364.022337	19.996000	-4.190000
	196.800256	1364.025908	19.968000	-4.170000
	196.900262	1364.019956	19.996000	-4.250000
	197.000268	1364.016385	19.972000	-4.230000
	197.150277	1364.019956	19.972000	-4.170000
	197.250282	1364.024718	19.982000	-4.160000
	197.350288	1364.024718	19.968000	-4.200000
	197.450294	1364.014005	19.978000	-4.290000
	197.550299	1364.018767	19.974000	-4.160000
	197.650305	1364.024718	19.982000	-4.150000
	197.750311	1364.024718	19.982000	-4.150000
	197.850317	1364.025909	19.968000	-4.190000
	197.950322	1364.017577	19.968000	-4.270000
	198.050328	1364.018767	19.992000	-4.190000
	198.150334	1364.019957	19.950000	-4.190000
	198.250340	1364.019957	19.994000	-4.200000
	198.352345	1364.014006	19.996000	-4.250000
	198.450351	1364.016387	19.976000	-4.180000
	198.550356	1364.014006	19.974000	-4.220000
	198.654363	1364.011625	19.982000	-4.220000
	198.750368	1364.011625	19.972000	-4.200000
	198.850374	1364.009245	19.978000	-4.220000
	198.950379	1364.010435	19.986000	-4.190000
	199.050385	1364.012816	19.980000	-4.180000
	199.150391	1364.022339	19.970000	-4.120000
	199.251397	1364.019958	19.984000	-4.220000
	199.353403	1364.023529	19.990000	-4.170000
	199.500411	1364.017577	19.972000	-4.250000
	199.603417	1364.017577	19.978000	-4.200000
	199.703423	1364.019958	19.980000	-4.180000
	199.804428	1364.029481	19.980000	-4.120000
	199.900434	1364.023529	19.980000	-4.250000
	200.000440	1364.021149	19.978000	-4.220000
	200.099445	1364.019959	19.980000	-4.210000
	200.199451	1364.022339	19.974000	-4.180000
	200.349460	1364.027101	19.980000	-4.160000
	200.449465	1364.025910	19.968000	-4.210000
	200.549471	1364.031862	19.972000	-4.150000
	200.649477	1364.029481	20.012000	-4.220000
	200.749482	1364.031862	19.978000	-4.180000
	200.849488	1364.035433	19.958000	-4.170000
	200.949494	1364.035433	19.964000	-4.200000
	201.099503	1364.031862	19.982000	-4.230000
	201.199508	1364.039004	19.976000	-4.140000
	201.299514	1364.042576	19.996000	-4.170000
	201.399519	1364.036624	19.960000	-4.250000
	201.499525	1364.043766	19.982000	-4.140000
	201.599531	1364.043766	19.988000	-4.200000
	201.699537	1364.043766	19.988000	-4.200000
	201.799542	1364.039005	19.988000	-4.240000
	201.899548	1364.035434	19.968000	-4.230000
	201.999554	1364.037815	19.966000	-4.180000
	202.099559	1364.039005	19.974000	-4.190000
	202.249568	1364.046147	19.994000	-4.140000
	202.349574	1364.046147	19.992000	-4.200000
	202.449580	1364.047338	19.974000	-4.190000
	202.549585	1364.053289	19.988000	-4.150000
	202.649591	1364.048528	19.986000	-4.240000
	202.749597	1364.041386	19.970000	-4.260000
	202.849602	1364.039005	19.968000	-4.220000
	202.949608	1364.039005	19.970000	-4.200000
	203.049614	1364.034244	19.974000	-4.240000
	203.099617	1364.035435	19.986000	-4.190000
	203.249625	1364.031864	19.980000	-4.230000
	203.349631	1364.031864	19.976000	-4.200000
	203.454637	1364.037815	19.988000	-4.150000
	203.549643	1364.037815	19.964000	-4.200000
	203.699651	1364.035435	19.974000	-4.220000
	203.799657	1364.044958	19.992000	-4.120000
	203.899662	1364.037816	19.956000	-4.260000
	203.999668	1364.041387	19.972000	-4.170000
	204.105674	1364.041387	19.972000	-4.170000
	204.199680	1364.046148	19.982000	-4.160000
	204.307686	1364.044958	19.976000	-4.210000
	204.400691	1364.042577	19.966000	-4.220000
	204.501697	1364.040197	19.954000	-4.220000
	204.599702	1364.043768	20.000000	-4.170000
	204.699708	1364.047339	19.964000	-4.170000
	204.799714	1364.049720	19.996000	-4.180000
	204.899720	1364.044958	19.978000	-4.240000
	205.002726	1364.037816	19.980000	-4.260000
	205.099731	1364.040197	19.984000	-4.180000
	205.199737	1364.035436	19.986000	-4.240000
	205.299743	1364.034245	19.972000	-4.210000
	205.399748	1364.034245	19.962000	-4.200000
	205.503754	1364.035436	19.976000	-4.190000
	205.599760	1364.037817	19.976000	-4.180000
	205.699766	1364.036626	19.970000	-4.210000
	205.849774	1364.036626	19.968000	-4.200000
	205.949780	1364.037817	19.978000	-4.190000
	206.049786	1364.035436	19.996000	-4.220000
	206.149791	1364.042578	19.984000	-4.140000
	206.249797	1364.041388	19.970000	-4.210000
	206.349802	1364.041388	19.970000	-4.210000
	206.449809	1364.036626	19.958000	-4.240000
	206.549814	1364.043769	19.980000	-4.140000
	206.649820	1364.047340	19.994000	-4.170000
	206.749825	1364.043769	19.966000	-4.230000
	206.849831	1364.041388	19.986000	-4.220000
	206.949837	1364.046150	19.972000	-4.160000
	207.049843	1364.053292	19.966000	-4.140000
	207.151848	1364.049721	19.962000	-4.230000
	207.249854	1364.046150	19.976000	-4.230000
	207.349860	1364.048531	19.984000	-4.180000
	207.449866	1364.054482	19.984000	-4.150000
	207.549871	1364.059244	19.968000	-4.160000
	207.650877	1364.065196	19.968000	-4.150000
	207.749883	1364.064006	19.968000	-4.210000
	207.849888	1364.054483	19.966000	-4.280000
	208.001897	1364.058054	19.958000	-4.170000
	208.099903	1364.061625	19.970000	-4.170000
	208.199909	1364.059245	19.966000	-4.220000
	208.299914	1364.062816	19.976000	-4.170000
	208.399920	1364.059245	19.960000	-4.230000
	208.499926	1364.058054	19.966000	-4.210000
	208.599931	1364.059245	19.970000	-4.190000
	208.699937	1364.059245	19.976000	-4.200000
	208.854946	1364.061625	19.972000	-4.180000
	208.952951	1364.062816	19.960000	-4.190000
	209.049957	1364.064006	19.982000	-4.190000
	209.149963	1364.064006	19.982000	-4.190000
	209.249969	1364.064006	19.976000	-4.200000
	209.349974	1364.074720	19.964000	-4.110000
	209.450980	1364.075910	19.964000	-4.190000
	209.549986	1364.078291	19.968000	-4.180000
	209.649992	1364.084243	19.962000	-4.150000
	209.756998	1364.081862	19.996000	-4.220000
	209.850003	1364.073530	19.974000	-4.270000
	209.950008	1364.068768	19.962000	-4.240000
	210.050014	1364.058056	19.958000	-4.290000
	210.150020	1364.056865	19.970000	-4.210000
	210.301029	1364.052104	19.950000	-4.240000
	210.400034	1364.056865	19.964000	-4.160000
	210.500040	1364.046152	19.990000	-4.290000
	210.600046	1364.046152	19.986000	-4.200000
	210.700051	1364.046152	19.948000	-4.200000
	210.850060	1364.053295	19.948000	-4.140000
	210.950066	1364.055675	19.966000	-4.180000
	211.050072	1364.050914	19.968000	-4.240000
	211.150077	1364.044962	19.998000	-4.250000
	211.300086	1364.049724	19.978000	-4.160000
	211.400092	1364.052105	19.982000	-4.180000
	211.500097	1364.054485	19.956000	-4.180000
	211.600103	1364.054485	19.956000	-4.180000
	211.700109	1364.056866	19.972000	-4.180000
	211.800115	1364.058057	19.980000	-4.190000
	211.900120	1364.052105	19.976000	-4.250000
	212.000126	1364.053295	19.988000	-4.190000
	212.102132	1364.055676	19.966000	-4.180000
	212.200137	1364.067580	19.986000	-4.100000
	212.300143	1364.067580	19.986000	-4.200000
	212.400149	1364.065199	19.956000	-4.220000
	212.500154	1364.064009	19.970000	-4.210000
	212.603160	1364.061628	19.990000	-4.220000
	212.750169	1364.067580	19.964000	-4.150000
	212.850174	1364.067580	19.964000	-4.150000
	212.950180	1364.069961	19.980000	-4.180000
	213.050186	1364.069961	19.992000	-4.200000
	213.150192	1364.065200	19.994000	-4.240000
	213.250197	1364.060438	19.978000	-4.240000
	213.350203	1364.064009	19.978000	-4.170000
	213.451209	1364.072342	19.984000	-4.130000
	213.554215	1364.060439	19.974000	-4.300000
	213.653221	1364.054487	19.996000	-4.250000
	213.750226	1364.060439	19.980000	-4.150000
	213.850232	1364.060439	19.954000	-4.200000
	213.952238	1364.066391	19.968000	-4.150000
	214.050243	1364.055678	19.980000	-4.290000
	214.200252	1364.058059	19.980000	-4.180000
	214.300257	1364.042585	19.976000	-4.330000
	214.400263	1364.044966	19.938000	-4.180000
	214.500269	1364.042585	19.962000	-4.220000
	214.654278	1364.052108	19.972000	-4.120000
	214.750283	1364.054489	19.978000	-4.180000
	214.850289	1364.052108	19.956000	-4.220000
	214.950294	1364.046157	19.962000	-4.250000
	215.100303	1364.049728	19.968000	-4.170000
	215.201309	1364.043776	19.958000	-4.250000
	215.300314	1364.050918	19.984000	-4.140000
	215.400321	1364.053299	19.966000	-4.180000
	215.556329	1364.052109	19.956000	-4.210000
	215.650335	1364.054490	19.952000	-4.180000
	215.750340	1364.054490	19.968000	-4.200000
	215.850346	1364.050918	19.974000	-4.230000
	215.950352	1364.052109	19.966000	-4.190000
	216.100360	1364.050918	19.976000	-4.210000
	216.200366	1364.050918	19.958000	-4.200000
	216.300372	1364.054490	19.986000	-4.170000
	216.400378	1364.062822	20.006000	-4.130000
	216.550386	1364.061632	19.970000	-4.210000
	216.650392	1364.065203	19.962000	-4.170000
	216.750398	1364.056871	19.966000	-4.270000
	216.850403	1364.064013	19.982000	-4.140000
	217.001412	1364.065204	19.972000	-4.190000
	217.100418	1364.059252	19.970000	-4.250000
	217.200423	1364.053300	19.978000	-4.250000
	217.301429	1364.060443	19.990000	-4.140000
	217.450438	1364.066394	19.980000	-4.150000
	217.549443	1364.068775	19.964000	-4.180000
	217.649449	1364.068775	19.964000	-4.180000
	217.749454	1364.074727	19.954000	-4.150000
	217.850461	1364.074727	19.974000	-4.200000
	217.949466	1364.074727	19.998000	-4.200000
	218.049472	1364.066395	19.954000	-4.270000
	218.149477	1364.059253	19.994000	-4.260000
	218.250484	1364.061634	19.984000	-4.180000
	218.349489	1364.061634	19.976000	-4.200000
	218.449495	1364.065205	19.976000	-4.170000
	218.549500	1364.068776	19.982000	-4.170000
	218.649506	1364.074728	19.980000	-4.150000
	218.749512	1364.077109	19.948000	-4.180000
	218.853518	1364.074728	19.994000	-4.220000
	218.949523	1364.069966	20.010000	-4.240000
	219.049529	1364.071157	19.960000	-4.190000
	219.149535	1364.072347	19.964000	-4.190000
	219.249540	1364.071157	19.998000	-4.210000
	219.349546	1364.064015	19.998000	-4.260000
	219.449552	1364.066396	19.984000	-4.180000
	219.549558	1364.064015	19.968000	-4.220000
	219.649563	1364.061634	19.968000	-4.220000
	219.800572	1364.062824	19.950000	-4.190000
	219.899578	1364.065205	19.988000	-4.180000
	219.999583	1364.062824	19.974000	-4.220000
	220.099589	1364.065205	19.970000	-4.180000
	220.199595	1364.072348	19.986000	-4.140000
	220.299601	1364.072348	19.986000	-4.140000
	220.399606	1364.069967	19.982000	-4.220000
	220.499612	1364.069967	19.994000	-4.200000
	220.599618	1364.074729	19.986000	-4.160000
	220.699624	1364.075919	19.972000	-4.190000
	220.799629	1364.074729	19.964000	-4.210000
	220.899635	1364.077109	19.954000	-4.180000
	220.999640	1364.072348	19.986000	-4.240000
	221.099647	1364.068777	19.968000	-4.230000
	221.200652	1364.067586	19.948000	-4.210000
	221.308658	1364.068777	19.958000	-4.190000
	221.399663	1364.073538	19.986000	-4.160000
	221.499669	1364.072348	19.980000	-4.210000
	221.599675	1364.075919	19.960000	-4.170000
	221.699681	1364.077110	19.976000	-4.190000
	221.799686	1364.071158	19.974000	-4.250000
	221.899692	1364.074729	19.976000	-4.170000
	221.999698	1364.079491	19.982000	-4.160000
	222.149706	1364.079491	19.982000	-4.160000
	222.249712	1364.068778	19.962000	-4.290000
	222.349718	1364.069968	19.958000	-4.190000
	222.449724	1364.069968	19.976000	-4.200000
	222.549729	1364.065206	19.966000	-4.240000
	222.649735	1364.067587	19.958000	-4.180000
	222.749741	1364.068778	19.978000	-4.190000
	222.849746	1364.069968	19.964000	-4.190000
	222.949752	1364.077110	19.964000	-4.140000
	223.049758	1364.074730	19.974000	-4.220000
	223.149764	1364.084253	19.976000	-4.120000
	223.249769	1364.083063	19.994000	-4.210000
	223.349775	1364.075921	19.964000	-4.260000
	223.449781	1364.081873	19.986000	-4.150000
	223.550786	1364.073540	19.994000	-4.270000
	223.649792	1364.072350	19.958000	-4.210000
	223.749798	1364.072350	19.970000	-4.200000
	223.849803	1364.073540	19.968000	-4.190000
	223.949810	1364.073540	19.968000	-4.190000
	224.049815	1364.072350	19.960000	-4.210000
	224.149821	1364.077111	19.962000	-4.160000
	224.249826	1364.071160	19.976000	-4.250000
	224.349832	1364.075921	19.978000	-4.160000
	224.449838	1364.083064	19.976000	-4.140000
	224.549844	1364.084254	19.978000	-4.190000
	224.649849	1364.081873	19.962000	-4.220000
	224.749855	1364.079493	19.968000	-4.220000
	224.849861	1364.071160	19.966000	-4.270000
	224.949866	1364.068779	19.966000	-4.220000
	225.049872	1364.073541	19.976000	-4.160000
	225.150878	1364.074731	19.978000	-4.190000
	225.249884	1364.080683	19.970000	-4.150000
	225.349889	1364.085445	19.952000	-4.160000
	225.449895	1364.084255	19.972000	-4.210000
	225.549901	1364.075922	19.956000	-4.270000
	225.649907	1364.073541	19.978000	-4.220000
	225.749912	1364.072351	19.960000	-4.210000
	225.850918	1364.072351	19.960000	-4.210000
	225.999927	1364.079493	19.966000	-4.140000
	226.099932	1364.072351	19.960000	-4.260000
	226.199938	1364.068780	19.974000	-4.230000
	226.299944	1364.067590	19.976000	-4.210000
	226.399950	1364.065209	19.956000	-4.220000
	226.499955	1364.066400	19.956000	-4.190000
	226.599961	1364.068780	19.986000	-4.180000
	226.701967	1364.065209	19.992000	-4.230000
	226.849975	1364.067590	19.976000	-4.180000
	226.949981	1364.066400	19.972000	-4.210000
	227.049987	1364.071161	19.976000	-4.160000
	227.149992	1364.071161	19.956000	-4.200000
	227.249998	1364.075923	19.960000	-4.160000
	227.350004	1364.074732	19.980000	-4.210000
	227.455010	1364.072352	19.978000	-4.220000
	227.550015	1364.066400	19.984000	-4.250000
	227.650021	1364.065210	19.980000	-4.210000
	227.750027	1364.059258	19.966000	-4.250000
	227.850032	1364.059258	19.966000	-4.250000
	227.950038	1364.062829	19.974000	-4.170000
	228.050044	1364.066400	20.000000	-4.170000
	228.150050	1364.062829	19.978000	-4.230000
	228.250055	1364.068781	19.970000	-4.150000
	228.350061	1364.069971	20.010000	-4.190000
	228.450067	1364.071162	20.004000	-4.190000
	228.550072	1364.062829	19.946000	-4.270000
	228.650078	1364.065210	19.984000	-4.180000
	228.750084	1364.068781	19.992000	-4.170000
	228.850090	1364.065210	19.962000	-4.230000
	228.950095	1364.062830	19.986000	-4.220000
	229.050101	1364.062830	19.980000	-4.200000
	229.152107	1364.059258	19.994000	-4.230000
	229.250113	1364.059258	19.980000	-4.200000
	229.350118	1364.055687	19.982000	-4.230000
	229.450124	1364.058068	19.994000	-4.180000
	229.550129	1364.059259	19.974000	-4.190000
	229.650136	1364.059259	19.974000	-4.190000
	229.754141	1364.055687	19.996000	-4.230000
	229.850147	1364.054497	19.990000	-4.210000
	229.950152	1364.060449	19.986000	-4.150000
	230.050158	1364.066401	19.984000	-4.150000
	230.150164	1364.071163	19.980000	-4.160000
	230.250170	1364.067592	20.000000	-4.230000
	230.350175	1364.062830	19.968000	-4.240000
	230.450181	1364.073544	19.972000	-4.110000
	230.552187	1364.072354	19.986000	-4.210000
	230.650193	1364.071163	19.956000	-4.210000
	230.750198	1364.078306	19.972000	-4.140000
	230.855204	1364.078306	19.986000	-4.200000
	230.950210	1364.075925	19.990000	-4.220000
	231.050215	1364.077115	19.964000	-4.190000
	231.150221	1364.075925	20.000000	-4.210000
	231.250227	1364.073544	19.984000	-4.220000
	231.350233	1364.071163	19.976000	-4.220000
	231.450238	1364.068783	19.978000	-4.220000
	231.550244	1364.069973	19.972000	-4.190000
	231.703253	1364.072354	19.982000	-4.180000
	231.800258	1364.075925	19.960000	-4.170000
	231.901264	1364.077115	19.992000	-4.190000
	232.000270	1364.083067	19.966000	-4.150000
	232.100276	1364.080687	19.974000	-4.220000
	232.200281	1364.085448	19.956000	-4.160000
	232.300287	1364.085448	19.992000	-4.200000
	232.452296	1364.084258	19.988000	-4.210000
	232.550301	1364.081877	19.970000	-4.220000
	232.650307	1364.081877	19.976000	-4.200000
	232.750313	1364.083068	20.002000	-4.190000
	232.850318	1364.085448	19.974000	-4.180000
	232.952324	1364.085448	19.978000	-4.200000
	233.050330	1364.085448	19.978000	-4.200000
	233.150335	1364.081877	20.004000	-4.230000
	233.250341	1364.079496	19.980000	-4.220000
	233.350347	1364.077116	19.962000	-4.220000
	233.450353	1364.074735	19.974000	-4.220000
	233.550358	1364.071164	19.964000	-4.230000
	233.650364	1364.072354	19.986000	-4.190000
	233.750370	1364.071164	19.992000	-4.210000
	233.852376	1364.069973	19.966000	-4.210000
	233.950381	1364.073545	20.014000	-4.170000
	234.050387	1364.073545	19.968000	-4.200000
	234.150393	1364.075925	19.972000	-4.180000
	234.250399	1364.080687	19.992000	-4.160000
	234.350404	1364.085449	19.996000	-4.160000
	234.450410	1364.085449	19.992000	-4.200000
	234.550416	1364.085449	19.964000	-4.200000
	234.650421	1364.086639	19.988000	-4.190000
	234.750427	1364.080687	19.998000	-4.250000
	234.900435	1364.081878	19.986000	-4.190000
	235.000442	1364.085449	19.982000	-4.170000
	235.099447	1364.084258	19.958000	-4.210000
	235.199453	1364.083068	19.958000	-4.210000
	235.299459	1364.086639	19.966000	-4.170000
	235.399464	1364.083068	19.990000	-4.230000
	235.499470	1364.080687	19.974000	-4.220000
	235.599476	1364.080687	19.964000	-4.200000
	235.749484	1364.079497	19.964000	-4.210000
	235.849490	1364.086640	19.978000	-4.140000
	235.949496	1364.080688	19.990000	-4.250000
	236.049501	1364.077117	19.984000	-4.230000
	236.149507	1364.080688	19.968000	-4.170000
	236.249513	1364.078307	19.986000	-4.220000
	236.399521	1364.075926	19.986000	-4.220000
	236.499527	1364.075926	19.984000	-4.200000
	236.606533	1364.080688	19.964000	-4.160000
	236.699539	1364.080688	19.964000	-4.160000
	236.799544	1364.085450	19.984000	-4.160000
	236.899550	1364.081878	19.988000	-4.230000
	236.999556	1364.081878	19.980000	-4.200000
	237.099561	1364.077117	19.972000	-4.240000
	237.199567	1364.081879	19.964000	-4.160000
	237.299573	1364.083069	19.964000	-4.190000
	237.399579	1364.083069	19.962000	-4.200000
	237.499584	1364.087831	19.984000	-4.160000
	237.599590	1364.085450	19.984000	-4.220000
	237.699596	1364.081879	19.980000	-4.230000
	237.799602	1364.085450	19.988000	-4.170000
	237.904607	1364.087831	19.988000	-4.180000
	237.999613	1364.084260	19.980000	-4.230000
	238.099618	1364.084260	19.968000	-4.200000
	238.199625	1364.097354	19.984000	-4.090000
	238.299630	1364.098545	19.956000	-4.190000
	238.399636	1364.098545	19.956000	-4.190000
	238.499641	1364.100926	19.942000	-4.180000
	238.599647	1364.100926	19.986000	-4.200000
	238.699653	1364.100926	19.978000	-4.200000
	238.799659	1364.097355	19.974000	-4.230000
	238.899664	1364.096164	19.994000	-4.210000
	238.999670	1364.092593	19.962000	-4.230000
	239.099676	1364.087832	19.976000	-4.240000
	239.199682	1364.086641	19.972000	-4.210000
	239.299687	1364.085451	19.996000	-4.210000
	239.399693	1364.079499	19.966000	-4.250000
	239.499699	1364.087832	19.978000	-4.130000
	239.604705	1364.083070	19.992000	-4.240000
	239.699710	1364.085451	19.972000	-4.180000
	239.799716	1364.085451	19.950000	-4.200000
	239.899722	1364.079499	19.962000	-4.250000
	239.999727	1364.081880	19.972000	-4.180000
	240.099733	1364.087832	20.000000	-4.150000
	240.249742	1364.091403	19.970000	-4.170000
	240.349747	1364.091403	19.970000	-4.170000
	240.449753	1364.099736	19.974000	-4.130000
	240.549759	1364.099736	19.982000	-4.200000
	240.649765	1364.102117	19.976000	-4.180000
	240.749770	1364.104498	19.984000	-4.180000
	240.849776	1364.102117	19.958000	-4.220000
	240.949781	1364.091404	19.962000	-4.290000
	241.049788	1364.099737	20.008000	-4.130000
	241.149793	1364.096166	19.992000	-4.230000
	241.249799	1364.099737	19.992000	-4.170000
	241.349804	1364.103308	19.982000	-4.170000
	241.449810	1364.100928	19.984000	-4.220000
	241.549816	1364.099737	19.978000	-4.210000
	241.649822	1364.098547	19.964000	-4.210000
	241.751828	1364.105689	19.998000	-4.140000
	241.849833	1364.102118	20.006000	-4.230000
	241.958839	1364.100928	20.004000	-4.210000
	242.049845	1364.097357	19.998000	-4.230000
	242.149850	1364.096166	19.958000	-4.210000
	242.299859	1364.103309	19.980000	-4.140000
	242.399865	1364.103309	19.986000	-4.200000
	242.504870	1364.097357	19.968000	-4.250000
	242.599876	1364.096167	19.974000	-4.210000
	242.749885	1364.099738	19.962000	-4.170000
	242.849890	1364.102119	19.962000	-4.180000
	242.949896	1364.099738	19.980000	-4.220000
	243.075903	1364.089025	19.956000	-4.290000
	243.149908	1364.089025	19.986000	-4.200000
	243.249913	1364.077121	20.002000	-4.300000
	243.399922	1364.071169	19.994000	-4.250000
	243.499928	1364.069979	19.976000	-4.210000
	243.599933	1364.079502	19.972000	-4.120000
	243.700939	1364.086645	19.994000	-4.140000
	243.799945	1364.087835	19.998000	-4.190000
	243.900950	1364.084264	19.976000	-4.230000
	244.049959	1364.086645	19.970000	-4.180000
	244.149965	1364.086645	20.002000	-4.200000
	244.249970	1364.089026	19.970000	-4.180000
	244.349976	1364.093787	19.972000	-4.160000
	244.499985	1364.093787	19.960000	-4.200000
	244.599990	1364.104501	19.974000	-4.110000
	244.699996	1364.109263	19.988000	-4.160000
	244.800002	1364.106882	19.958000	-4.220000
	244.900008	1364.104502	19.980000	-4.220000
	245.051016	1364.106882	19.978000	-4.180000
	245.153022	1364.114025	19.976000	-4.140000
	245.255028	1364.108073	19.962000	-4.250000
	245.350033	1364.104502	19.970000	-4.230000
	245.450039	1364.112835	19.960000	-4.130000
	245.550045	1364.110454	19.972000	-4.220000
	245.700053	1364.111645	19.972000	-4.190000
	245.800059	1364.108073	19.976000	-4.230000
	245.900065	1364.108073	19.976000	-4.230000
	246.000071	1364.112835	19.994000	-4.160000
	246.103076	1364.111645	19.966000	-4.210000
	246.200082	1364.108074	19.952000	-4.230000
	246.303088	1364.106883	19.996000	-4.210000
	246.400094	1364.106883	19.982000	-4.200000
	246.400094	1364.106883	19.982000	-4.200000
	246.600105	1364.116407	19.970000	-4.120000
	246.700110	1364.114026	19.980000	-4.220000
	246.800117	1364.111645	19.950000	-4.220000
	246.900122	1364.122359	19.972000	-4.110000
	247.000128	1364.123550	19.984000	-4.190000
	247.100133	1364.118788	19.962000	-4.240000
	247.200139	1364.121169	19.966000	-4.180000
	247.312146	1364.122359	19.976000	-4.190000
	247.400151	1364.118788	19.998000	-4.230000
	247.501156	1364.116407	19.958000	-4.220000
	247.600162	1364.118788	19.970000	-4.180000
	247.701168	1364.112836	19.948000	-4.250000
	247.800174	1364.108075	19.984000	-4.240000
	247.900179	1364.100932	19.976000	-4.260000
	248.050188	1364.102123	19.952000	-4.190000
	248.150194	1364.114027	19.990000	-4.100000
	248.251199	1364.108075	19.992000	-4.250000
	248.350205	1364.108075	19.978000	-4.200000
	248.453211	1364.116409	19.980000	-4.130000
	248.553216	1364.115218	19.986000	-4.210000
	248.650222	1364.112837	19.972000	-4.220000
	248.801231	1364.114028	19.966000	-4.190000
	248.901237	1364.122361	19.982000	-4.130000
	249.000242	1364.122361	19.976000	-4.200000
	249.100248	1364.122361	19.976000	-4.200000
	249.200253	1364.116409	19.990000	-4.250000
	249.300259	1364.117599	19.978000	-4.190000
	249.400265	1364.122361	19.976000	-4.160000
	249.501271	1364.122361	19.970000	-4.200000
	249.600276	1364.110457	19.980000	-4.300000
	249.701282	1364.114029	19.994000	-4.170000
	249.801288	1364.105696	19.986000	-4.270000
	249.900294	1364.112839	19.966000	-4.140000
	250.000299	1364.114029	19.974000	-4.190000
	250.100305	1364.110458	19.986000	-4.230000
	250.200311	1364.103316	19.964000	-4.260000
	250.302317	1364.099744	19.962000	-4.230000
	250.400322	1364.102125	19.998000	-4.180000
	250.500328	1364.100935	19.958000	-4.210000
	250.600334	1364.104506	19.978000	-4.170000
	250.700339	1364.114030	19.964000	-4.120000
	250.800345	1364.118791	19.968000	-4.160000
	250.900351	1364.119982	19.956000	-4.190000
	251.000357	1364.116411	19.950000	-4.230000
	251.150365	1364.116411	19.964000	-4.200000
	251.250371	1364.119982	19.972000	-4.170000
	251.350377	1364.118792	19.960000	-4.210000
	251.450382	1364.123553	19.982000	-4.160000
	251.550388	1364.127125	19.970000	-4.170000
	251.650394	1364.125934	19.988000	-4.210000
	251.750400	1364.122363	19.962000	-4.230000
	251.900408	1364.123553	19.962000	-4.190000
	252.000414	1364.124744	19.988000	-4.190000
	252.100420	1364.124744	19.988000	-4.190000
	252.200425	1364.123553	19.946000	-4.210000
	252.300431	1364.131887	19.956000	-4.130000
	252.400436	1364.127125	19.960000	-4.240000
	252.500443	1364.121173	19.980000	-4.250000
	252.599448	1364.121173	19.964000	-4.200000
	252.699454	1364.129506	19.978000	-4.130000
	252.799459	1364.128316	19.954000	-4.210000
	252.899465	1364.119983	19.970000	-4.270000
	252.999471	1364.122364	19.958000	-4.180000
	253.099477	1364.133078	19.988000	-4.110000
	253.199482	1364.133078	19.962000	-4.200000
	253.299488	1364.136649	19.960000	-4.170000
	253.400494	1364.140221	19.958000	-4.170000
	253.499499	1364.143792	19.970000	-4.170000
	253.599505	1364.146173	19.950000	-4.180000
	253.699511	1364.140221	19.948000	-4.250000
	253.799517	1364.140221	19.948000	-4.250000
	253.899522	1364.147364	19.968000	-4.140000
	253.999528	1364.149745	19.994000	-4.180000
	254.099534	1364.146173	19.960000	-4.230000
	254.199540	1364.143793	19.964000	-4.220000
	254.299545	1364.143793	19.980000	-4.200000
	254.399551	1364.143793	19.978000	-4.200000
	254.499557	1364.148554	19.962000	-4.160000
	254.599563	1364.159269	19.970000	-4.110000
	254.699568	1364.153317	19.962000	-4.250000
	254.799574	1364.150936	19.982000	-4.220000
	254.899580	1364.152126	19.956000	-4.190000
	254.999585	1364.148555	19.978000	-4.230000
	255.105591	1364.142603	19.982000	-4.250000
	255.199597	1364.140222	19.966000	-4.220000
	255.299603	1364.141412	19.944000	-4.190000
	255.399608	1364.146174	19.968000	-4.160000
	255.499614	1364.146174	19.972000	-4.200000
	255.599620	1364.146174	19.972000	-4.200000
	255.699625	1364.147365	19.984000	-4.190000
	255.799631	1364.154508	19.960000	-4.140000
	255.899637	1364.160460	19.962000	-4.150000
	255.999642	1364.150937	19.968000	-4.280000
	256.099648	1364.143794	19.958000	-4.260000
	256.199654	1364.137842	19.954000	-4.250000
	256.299660	1364.134271	19.982000	-4.230000
	256.399665	1364.134271	19.972000	-4.200000
	256.499671	1364.133080	19.956000	-4.210000
	256.599677	1364.135461	19.976000	-4.180000
	256.702682	1364.124748	19.972000	-4.290000
	256.799688	1364.128319	19.950000	-4.170000
	256.899694	1364.137843	19.946000	-4.120000
	256.999700	1364.136652	19.944000	-4.210000
	257.099705	1364.137843	19.968000	-4.190000
	257.199711	1364.143795	19.972000	-4.150000
	257.299717	1364.143795	19.972000	-4.150000
	257.399723	1364.140224	19.988000	-4.230000
	257.499728	1364.140224	19.964000	-4.200000
	257.599734	1364.137843	19.958000	-4.220000
	257.699740	1364.142605	20.002000	-4.160000
	257.799746	1364.144986	19.964000	-4.180000
	257.899751	1364.149748	19.974000	-4.160000
	257.999757	1364.152129	19.986000	-4.180000
	258.099762	1364.149748	19.984000	-4.220000
	258.199769	1364.143796	19.990000	-4.250000
	258.299774	1364.147367	19.964000	-4.170000
	258.403780	1364.154510	19.976000	-4.140000
	258.499785	1364.147367	19.966000	-4.260000
	258.599791	1364.144986	19.958000	-4.220000
	258.699797	1364.147367	19.968000	-4.180000
	258.799803	1364.140225	19.950000	-4.260000
	258.899808	1364.142606	19.952000	-4.180000
	258.999814	1364.144987	19.972000	-4.180000
	259.099820	1364.144987	19.966000	-4.200000
	259.199826	1364.146177	19.960000	-4.190000
	259.349834	1364.141415	19.978000	-4.240000
	259.449840	1364.140225	19.976000	-4.210000
	259.549846	1364.143796	19.944000	-4.170000
	259.649851	1364.140225	19.966000	-4.230000
	259.749857	1364.133083	19.970000	-4.260000
	259.849863	1364.131892	19.964000	-4.210000
	259.949868	1364.141416	19.984000	-4.120000
	260.099877	1364.146178	19.986000	-4.160000
	260.199883	1364.134274	19.946000	-4.300000
	260.305889	1364.129512	19.944000	-4.240000
	260.399894	1364.128322	19.960000	-4.210000
	260.501900	1364.134274	19.996000	-4.150000
	260.649909	1364.139036	19.968000	-4.160000
	260.749914	1364.143798	19.930000	-4.160000
	260.849920	1364.144988	19.938000	-4.190000
	260.949925	1364.146179	19.988000	-4.190000
	261.049932	1364.141417	19.946000	-4.240000
	261.149937	1364.146179	19.980000	-4.160000
	261.299946	1364.148560	19.970000	-4.180000
	261.399951	1364.148560	19.970000	-4.180000
	261.499957	1364.155703	19.964000	-4.140000
	261.599963	1364.162845	19.968000	-4.140000
	261.699968	1364.165226	19.948000	-4.180000
	261.799974	1364.164036	19.972000	-4.210000
	261.899980	1364.160465	19.962000	-4.230000
	261.999986	1364.147370	19.964000	-4.310000
	262.099991	1364.144989	19.972000	-4.220000
	262.199997	1364.146180	19.974000	-4.190000
	262.300003	1364.148561	19.962000	-4.180000
	262.400009	1364.141418	19.966000	-4.260000
	262.500014	1364.144990	19.990000	-4.170000
	262.601020	1364.139037	19.986000	-4.250000
	262.700026	1364.139037	19.968000	-4.200000
	262.803031	1364.149752	19.960000	-4.110000
	262.901037	1364.141419	19.968000	-4.270000
	263.000043	1364.144990	19.964000	-4.170000
	263.100049	1364.149752	19.952000	-4.160000
	263.200054	1364.143800	19.960000	-4.250000
	263.350063	1364.142610	19.968000	-4.210000
	263.450068	1364.143800	19.972000	-4.190000
	263.550074	1364.147371	19.956000	-4.170000
	263.650080	1364.149752	19.962000	-4.180000
	263.750086	1364.140229	19.950000	-4.280000
	263.850091	1364.141420	19.968000	-4.190000
	264.000100	1364.148562	19.968000	-4.140000
	264.100106	1364.150943	19.960000	-4.180000
	264.200111	1364.150943	19.964000	-4.200000
	264.302117	1364.149753	19.974000	-4.210000
	264.450126	1364.152134	19.956000	-4.180000
	264.550131	1364.154515	19.974000	-4.180000
	264.654138	1364.152134	19.974000	-4.220000
	264.750143	1364.159277	19.968000	-4.140000
	264.850149	1364.161658	19.982000	-4.180000
	265.000157	1364.158086	19.970000	-4.230000
	265.100163	1364.159277	19.972000	-4.190000
	265.200169	1364.152134	19.968000	-4.260000
	265.300174	1364.148563	19.970000	-4.230000
	265.400180	1364.147372	19.976000	-4.210000
	265.500186	1364.152134	19.986000	-4.160000
	265.600192	1364.152134	19.986000	-4.160000
	265.750200	1364.154515	19.982000	-4.180000
	265.850206	1364.161658	19.952000	-4.140000
	265.950212	1364.160468	19.976000	-4.210000
	266.050217	1364.165230	19.964000	-4.160000
	266.150223	1364.160468	19.986000	-4.240000
	266.250229	1364.156896	19.998000	-4.230000
	266.350235	1364.150944	19.956000	-4.250000
	266.450240	1364.147373	19.974000	-4.230000
	266.550246	1364.140231	19.956000	-4.260000
	266.650252	1364.144992	19.964000	-4.160000
	266.752257	1364.144992	19.960000	-4.200000
	266.850263	1364.153326	19.964000	-4.130000
	266.950269	1364.148564	19.944000	-4.240000
	267.000272	1364.150945	19.948000	-4.180000
	267.152280	1364.150945	19.966000	-4.200000
	267.250286	1364.156897	19.972000	-4.150000
	267.350292	1364.167612	19.986000	-4.110000
	267.450297	1364.161660	19.980000	-4.250000
	267.550303	1364.160469	19.958000	-4.210000
	267.650309	1364.161660	19.980000	-4.190000
	267.750315	1364.171184	19.972000	-4.120000
	267.900323	1364.171184	19.972000	-4.120000
	268.000329	1364.165231	19.964000	-4.250000
	268.100335	1364.165231	19.964000	-4.200000
	268.200340	1364.156898	19.938000	-4.270000
	268.300346	1364.175947	19.938000	-4.040000
	268.400352	1364.173566	19.964000	-4.220000
	268.500358	1364.167614	19.954000	-4.250000
	268.600363	1364.172376	19.960000	-4.160000
	268.700369	1364.172376	19.970000	-4.200000
	268.800375	1364.167614	19.958000	-4.240000
	268.900380	1364.166424	19.972000	-4.210000
	269.000386	1364.169995	19.978000	-4.170000
	269.100392	1364.162852	19.976000	-4.260000
	269.200397	1364.164043	19.976000	-4.190000
	269.305404	1364.159281	19.994000	-4.240000
	269.400409	1364.156900	19.964000	-4.220000
	269.500415	1364.159281	19.978000	-4.180000
	269.600420	1364.160472	19.968000	-4.190000
	269.700426	1364.159281	19.934000	-4.210000
	269.800432	1364.159281	19.934000	-4.210000
	269.903438	1364.162853	19.982000	-4.170000
	269.999443	1364.161662	19.976000	-4.210000
	270.099449	1364.162853	19.964000	-4.190000
	270.200455	1364.165234	19.966000	-4.180000
	270.299460	1364.153330	19.952000	-4.300000
	270.402466	1364.159282	19.966000	-4.150000
	270.499472	1364.155711	19.968000	-4.230000
	270.600478	1364.150949	19.978000	-4.240000
	270.699483	1364.155711	19.980000	-4.160000
	270.800489	1364.152139	19.960000	-4.230000
	270.899495	1364.156901	19.970000	-4.160000
	271.000500	1364.156901	19.956000	-4.200000
	271.099506	1364.161663	19.966000	-4.160000
	271.199512	1364.171187	19.978000	-4.120000
	271.299518	1364.164045	19.966000	-4.260000
	271.399523	1364.173569	19.950000	-4.120000
	271.499529	1364.171188	19.972000	-4.220000
	271.599535	1364.171188	19.972000	-4.220000
	271.699541	1364.172378	19.982000	-4.190000
	271.799546	1364.166426	19.964000	-4.250000
	271.899552	1364.169997	19.946000	-4.170000
	271.999557	1364.171188	19.960000	-4.190000
	272.099563	1364.172378	19.958000	-4.190000
	272.199569	1364.171188	19.954000	-4.210000
	272.299575	1364.174759	19.962000	-4.170000
	272.399580	1364.179521	19.954000	-4.160000
	272.501586	1364.179521	19.960000	-4.200000
	272.599592	1364.175950	19.978000	-4.230000
	272.699598	1364.165236	19.958000	-4.290000
	272.799603	1364.161665	19.948000	-4.230000
	272.899609	1364.155713	19.990000	-4.250000
	272.999615	1364.158094	19.974000	-4.180000
	273.099620	1364.165236	19.980000	-4.140000
	273.199626	1364.154523	19.964000	-4.290000
	273.349635	1364.149761	19.980000	-4.240000
	273.449641	1364.149761	19.980000	-4.240000
	273.549646	1364.156904	19.978000	-4.140000
	273.649652	1364.154523	19.982000	-4.220000
	273.749658	1364.158094	19.970000	-4.170000
	273.849663	1364.159285	19.950000	-4.190000
	273.949669	1364.158094	19.954000	-4.210000
	274.049675	1364.156904	19.966000	-4.210000
	274.149681	1364.159285	19.978000	-4.180000
	274.249686	1364.168809	19.980000	-4.120000
	274.349692	1364.171190	19.972000	-4.180000
	274.449697	1364.169999	19.970000	-4.210000
	274.549704	1364.178333	19.952000	-4.130000
	274.656710	1364.175952	19.964000	-4.220000
	274.749715	1364.175952	19.966000	-4.200000
	274.849720	1364.170000	19.994000	-4.250000
	274.949726	1364.174762	19.972000	-4.160000
	275.049732	1364.173571	19.970000	-4.210000
	275.149738	1364.177143	19.954000	-4.170000
	275.249743	1364.173571	19.958000	-4.230000
	275.349749	1364.183095	19.968000	-4.120000
	275.499758	1364.183095	19.968000	-4.120000
	275.599763	1364.177143	19.962000	-4.250000
	275.699769	1364.178334	19.948000	-4.190000
	275.799775	1364.178334	19.978000	-4.200000
	275.899781	1364.173572	19.932000	-4.240000
	275.999786	1364.168810	19.944000	-4.240000
	276.099792	1364.160477	19.974000	-4.270000
	276.199798	1364.155715	20.012000	-4.240000
	276.299804	1364.164049	19.972000	-4.130000
	276.399809	1364.162858	19.986000	-4.210000
	276.499815	1364.165239	19.980000	-4.180000
	276.599821	1364.173573	19.974000	-4.130000
	276.699826	1364.161668	19.972000	-4.300000
	276.799832	1364.154526	19.964000	-4.260000
	276.899838	1364.156907	19.982000	-4.180000
	276.999844	1364.149764	19.966000	-4.260000
	277.049847	1364.153336	19.964000	-4.170000
	277.199855	1364.156907	19.996000	-4.170000
	277.299861	1364.156907	19.996000	-4.170000
	277.399867	1364.156907	19.974000	-4.200000
	277.499872	1364.164050	19.952000	-4.140000
	277.599878	1364.159288	19.970000	-4.240000
	277.699883	1364.153336	19.982000	-4.250000
	277.799890	1364.145003	19.972000	-4.270000
	277.899895	1364.142622	19.982000	-4.220000
	277.999901	1364.142622	19.956000	-4.200000
	278.099906	1364.150956	19.972000	-4.130000
	278.199912	1364.150956	19.968000	-4.200000
	278.299918	1364.154527	19.984000	-4.170000
	278.399924	1364.159289	19.994000	-4.160000
	278.499929	1364.166432	19.964000	-4.140000
	278.599935	1364.166432	19.970000	-4.200000
	278.699941	1364.161670	19.962000	-4.240000
	278.803947	1364.164051	19.968000	-4.180000
	278.899952	1364.162861	19.972000	-4.210000
	278.999958	1364.170003	19.976000	-4.140000
	279.099964	1364.170003	19.976000	-4.140000
	279.199969	1364.170003	19.962000	-4.200000
	279.299975	1364.173575	19.952000	-4.170000
	279.399981	1364.171194	19.990000	-4.220000
	279.499987	1364.170004	19.962000	-4.210000
	279.599992	1364.177147	19.970000	-4.140000
	279.699998	1364.171194	19.972000	-4.250000
	279.800004	1364.177147	19.952000	-4.150000
	279.900010	1364.177147	19.992000	-4.200000
	280.000015	1364.172385	19.970000	-4.240000
	280.100021	1364.170004	19.958000	-4.220000
	280.200027	1364.172385	20.000000	-4.180000
	280.300032	1364.165242	19.992000	-4.260000
	280.400038	1364.171195	19.998000	-4.150000
	280.502044	1364.178338	19.966000	-4.140000
	280.600049	1364.178338	19.962000	-4.200000
	280.700055	1364.183100	19.988000	-4.160000
	280.800061	1364.185481	19.978000	-4.180000
	280.900067	1364.187862	19.938000	-4.180000
	281.000072	1364.187862	19.960000	-4.200000
	281.100078	1364.185481	19.950000	-4.220000
	281.200084	1364.181909	19.946000	-4.230000
	281.300089	1364.181909	19.946000	-4.230000
	281.400095	1364.189052	19.960000	-4.140000
	281.500101	1364.192624	19.970000	-4.170000
	281.600107	1364.197386	19.962000	-4.160000
	281.700112	1364.200957	19.968000	-4.170000
	281.800118	1364.195005	19.960000	-4.250000
	281.900124	1364.193815	19.954000	-4.210000
	282.000130	1364.197386	19.974000	-4.170000
	282.104136	1364.198577	19.946000	-4.190000
	282.200141	1364.196196	19.980000	-4.220000
	282.350150	1364.197386	19.948000	-4.190000
	282.450155	1364.204529	19.966000	-4.140000
	282.550161	1364.206910	19.968000	-4.180000
	282.650167	1364.210482	19.966000	-4.170000
	282.750173	1364.208101	19.972000	-4.220000
	282.850178	1364.210482	19.960000	-4.180000
	282.900181	1364.210482	19.954000	-4.200000
	283.050189	1364.209291	19.978000	-4.210000
	283.150196	1364.204529	19.960000	-4.240000
	283.250201	1364.209291	19.946000	-4.160000
	283.350207	1364.203339	19.970000	-4.250000
	283.450212	1364.200958	19.962000	-4.220000
	283.550218	1364.200958	19.964000	-4.200000
	283.700227	1364.199768	19.950000	-4.210000
	283.800232	1364.196196	19.974000	-4.230000
	283.900239	1364.190244	19.948000	-4.250000
	284.000244	1364.189053	19.956000	-4.210000
	284.100250	1364.189053	19.956000	-4.210000
	284.200255	1364.187863	19.936000	-4.210000
	284.300261	1364.185482	19.968000	-4.220000
	284.400267	1364.190244	19.978000	-4.160000
	284.500273	1364.183101	19.956000	-4.260000
	284.600278	1364.186673	19.976000	-4.170000
	284.700284	1364.184292	19.980000	-4.220000
	284.800290	1364.177149	19.966000	-4.260000
	284.900296	1364.181911	19.980000	-4.160000
	285.000301	1364.183102	19.984000	-4.190000
	285.100307	1364.178340	19.986000	-4.240000
	285.200313	1364.181911	19.954000	-4.170000
	285.302319	1364.187864	19.960000	-4.150000
	285.400324	1364.180721	19.966000	-4.260000
	285.500330	1364.180721	19.976000	-4.200000
	285.600336	1364.178340	19.984000	-4.220000
	285.700341	1364.178340	19.984000	-4.220000
	285.800347	1364.175959	19.974000	-4.220000
	285.900353	1364.178340	19.970000	-4.180000
	286.000359	1364.183102	19.960000	-4.160000
	286.100364	1364.186674	19.970000	-4.170000
	286.200370	1364.187864	19.966000	-4.190000
	286.300375	1364.191436	19.944000	-4.170000
	286.400382	1364.189055	19.982000	-4.220000
	286.500387	1364.187864	19.964000	-4.210000
	286.600393	1364.186674	19.964000	-4.210000
	286.700398	1364.184293	19.968000	-4.220000
	286.801404	1364.191436	19.962000	-4.140000
	286.900410	1364.192626	19.962000	-4.190000
	287.005416	1364.196198	19.946000	-4.170000
	287.100421	1364.190246	19.958000	-4.250000
	287.200427	1364.197389	19.966000	-4.140000
	287.300433	1364.203341	19.974000	-4.150000
	287.400438	1364.202151	19.950000	-4.210000
	287.499444	1364.202151	19.950000	-4.210000
	287.599450	1364.202151	19.952000	-4.200000
	287.699456	1364.204532	19.958000	-4.180000
	287.799461	1364.208103	19.946000	-4.170000
	287.899467	1364.204532	19.974000	-4.230000
	287.999473	1364.200960	19.966000	-4.230000
	288.105479	1364.192627	19.964000	-4.270000
	288.199484	1364.191437	19.964000	-4.210000
	288.299490	1364.193818	19.960000	-4.180000
	288.399496	1364.191437	19.966000	-4.220000
	288.504502	1364.195008	19.978000	-4.170000
	288.599507	1364.203342	19.948000	-4.130000
	288.699513	1364.209294	19.962000	-4.150000
	288.799519	1364.208104	19.964000	-4.210000
	288.899524	1364.205723	19.952000	-4.220000
	288.999530	1364.206913	19.964000	-4.190000
	289.099536	1364.216438	19.952000	-4.120000
	289.199542	1364.216438	19.952000	-4.120000
	289.299547	1364.210486	19.956000	-4.180000
	289.449556	1364.215248	19.974000	-4.160000
	289.549562	1364.222391	19.946000	-4.140000
	289.649567	1364.221200	19.946000	-4.210000
	289.749573	1364.217629	19.954000	-4.230000
	289.849579	1364.221200	19.956000	-4.170000
	289.949584	1364.215248	19.942000	-4.250000
	290.049590	1364.212867	19.970000	-4.220000
	290.199599	1364.214057	19.962000	-4.190000
	290.299604	1364.212867	19.958000	-4.210000
	290.399610	1364.218820	19.958000	-4.150000
	290.499616	1364.210486	19.966000	-4.270000
	290.599621	1364.205724	19.984000	-4.240000
	290.699627	1364.209296	19.946000	-4.170000
	290.799633	1364.221201	19.964000	-4.100000
	290.899639	1364.221201	19.964000	-4.100000
	290.999644	1364.221201	19.960000	-4.200000
	291.099650	1364.212868	19.962000	-4.270000
	291.199656	1364.209297	19.954000	-4.230000
	291.299662	1364.208106	19.956000	-4.210000
	291.399667	1364.214059	19.982000	-4.150000
	291.499673	1364.217630	19.942000	-4.170000
	291.599679	1364.227155	19.944000	-4.120000
	291.699685	1364.222393	19.942000	-4.240000
	291.802691	1364.218821	19.966000	-4.230000
	291.899696	1364.228346	19.956000	-4.120000
	291.999701	1364.221203	19.962000	-4.260000
	292.099707	1364.223584	19.976000	-4.180000
	292.199713	1364.220012	19.966000	-4.230000
	292.349721	1364.221203	19.970000	-4.190000
	292.449728	1364.218822	19.966000	-4.220000
	292.499730	1364.221203	19.962000	-4.180000
	292.649739	1364.218822	19.986000	-4.220000
	292.749744	1364.218822	19.986000	-4.220000
	292.849750	1364.217631	19.962000	-4.210000
	292.949756	1364.215250	19.972000	-4.220000
	293.049762	1364.217631	19.964000	-4.180000
	293.149767	1364.224775	19.966000	-4.140000
	293.249773	1364.222394	19.950000	-4.220000
	293.349779	1364.220013	19.940000	-4.220000
	293.449785	1364.221203	19.968000	-4.190000
	293.549790	1364.220013	19.962000	-4.210000
	293.649796	1364.212870	19.928000	-4.260000
	293.749802	1364.211679	19.954000	-4.210000
	293.849807	1364.220013	19.972000	-4.130000
	293.949813	1364.211680	19.974000	-4.270000
	294.049819	1364.214061	19.954000	-4.180000
	294.149825	1364.221204	19.954000	-4.140000
	294.252831	1364.217633	19.964000	-4.230000
	294.349836	1364.214061	19.958000	-4.230000
	294.449841	1364.223585	19.962000	-4.120000
	294.549848	1364.217633	19.960000	-4.250000
	294.649853	1364.220014	19.962000	-4.180000
	294.749859	1364.217633	19.960000	-4.220000
	294.849864	1364.216443	19.970000	-4.210000
	294.949870	1364.223586	19.972000	-4.140000
	295.099879	1364.217633	19.966000	-4.250000
	295.199884	1364.215252	19.960000	-4.220000
	295.299891	1364.211681	19.956000	-4.230000
	295.399896	1364.214062	19.974000	-4.180000
	295.499902	1364.214062	19.942000	-4.200000
	295.599907	1364.205729	19.942000	-4.270000
	295.699913	1364.200967	19.962000	-4.240000
	295.799919	1364.200967	19.962000	-4.240000
	295.899925	1364.200967	19.968000	-4.200000
	295.999930	1364.203348	19.958000	-4.180000
	296.099936	1364.199776	19.968000	-4.230000
	296.199942	1364.203348	19.958000	-4.170000
	296.299948	1364.204538	19.942000	-4.190000
	296.399953	1364.209300	19.960000	-4.160000
	296.499959	1364.211681	19.950000	-4.180000
	296.602965	1364.216443	19.952000	-4.160000
	296.699970	1364.220015	19.954000	-4.170000
	296.799976	1364.216444	19.956000	-4.230000
	296.899982	1364.218825	19.964000	-4.180000
	296.999988	1364.229540	19.972000	-4.110000
	297.099993	1364.225968	19.964000	-4.230000
	297.199999	1364.223587	19.972000	-4.220000
	297.300005	1364.224778	19.962000	-4.190000
	297.400011	1364.228349	19.958000	-4.170000
	297.550019	1364.228349	19.958000	-4.170000
	297.650025	1364.216445	19.954000	-4.300000
	297.750031	1364.217635	19.962000	-4.190000
	297.850036	1364.225969	19.978000	-4.130000
	297.950042	1364.224778	19.972000	-4.210000
	298.050047	1364.225969	19.990000	-4.190000
	298.150054	1364.221207	19.942000	-4.240000
	298.250059	1364.221207	19.964000	-4.200000
	298.350065	1364.220016	19.968000	-4.210000
	298.450070	1364.221207	19.972000	-4.190000
	298.550076	1364.233112	19.960000	-4.100000
	298.650082	1364.235494	19.968000	-4.180000
	298.750088	1364.235494	19.968000	-4.200000
	298.850093	1364.231922	19.974000	-4.230000
	298.950099	1364.225970	19.968000	-4.250000
	299.055105	1364.225970	19.966000	-4.200000
	299.150111	1364.228351	19.944000	-4.180000
	299.250116	1364.231922	19.970000	-4.170000
	299.350122	1364.231922	19.942000	-4.200000
	299.450128	1364.231922	19.942000	-4.200000
	299.550133	1364.230732	19.964000	-4.210000
	299.650139	1364.230732	19.986000	-4.200000
	299.750145	1364.227160	19.964000	-4.230000
	299.850151	1364.231922	19.958000	-4.160000
	299.950156	1364.233113	19.948000	-4.190000
	300.050162	1364.228351	19.956000	-4.240000
	300.150168	1364.223589	19.952000	-4.240000
	300.250174	1364.223589	19.946000	-4.200000
	300.350179	1364.225970	19.958000	-4.180000
	300.454185	1364.224779	19.960000	-4.210000
	300.550190	1364.230732	19.956000	-4.150000
	300.651196	1364.229542	19.974000	-4.210000
	300.750202	1364.228351	19.974000	-4.210000
	300.850208	1364.234304	19.966000	-4.150000
	300.950213	1364.233113	19.944000	-4.210000
	301.050219	1364.233113	19.944000	-4.210000
	301.150225	1364.231923	19.960000	-4.210000
	301.250231	1364.229542	19.958000	-4.220000
	301.350236	1364.235494	19.958000	-4.150000
	301.450242	1364.236685	19.956000	-4.190000
	301.550248	1364.234304	19.954000	-4.220000
	301.650253	1364.228351	19.922000	-4.250000
	301.750259	1364.220018	19.956000	-4.270000
	301.850265	1364.222399	19.950000	-4.180000
	301.950271	1364.223590	19.974000	-4.190000
	302.050276	1364.224780	19.952000	-4.190000
	302.150282	1364.221209	19.966000	-4.230000
	302.253288	1364.221209	19.970000	-4.200000
	302.350294	1364.215256	19.962000	-4.250000
	302.450299	1364.217637	19.954000	-4.180000
	302.550305	1364.222399	19.944000	-4.160000
	302.650311	1364.222399	19.946000	-4.200000
	302.750317	1364.221209	19.970000	-4.210000
	302.850322	1364.221209	19.970000	-4.210000
	302.950328	1364.223590	19.960000	-4.180000
	303.050333	1364.223590	19.976000	-4.200000
	303.150339	1364.227162	19.960000	-4.170000
	303.250345	1364.225971	19.954000	-4.210000
	303.350351	1364.223590	19.936000	-4.220000
	303.450356	1364.221209	19.954000	-4.220000
	303.550362	1364.224781	19.956000	-4.170000
	303.650368	1364.227162	19.958000	-4.180000
	303.750374	1364.231924	19.934000	-4.160000
	303.850379	1364.229543	19.978000	-4.220000
	303.955385	1364.230733	19.934000	-4.190000
	304.050391	1364.233114	19.966000	-4.180000
	304.150396	1364.234305	19.936000	-4.190000
	304.250402	1364.230733	19.922000	-4.230000
	304.350408	1364.228352	19.948000	-4.220000
	304.450414	1364.228352	19.966000	-4.200000
	304.550419	1364.231924	19.936000	-4.170000
	304.650425	1364.228352	19.950000	-4.230000
	304.800434	1364.230733	19.942000	-4.180000
	304.900439	1364.234305	19.968000	-4.170000
	304.999445	1364.233115	19.950000	-4.210000
	305.099451	1364.234305	19.956000	-4.190000
	305.199457	1364.233115	19.956000	-4.210000
	305.302463	1364.230734	19.960000	-4.220000
	305.399468	1364.224781	19.934000	-4.250000
	305.549477	1364.234306	19.954000	-4.120000
	305.649482	1364.239068	19.974000	-4.160000
	305.749488	1364.242639	19.966000	-4.170000
	305.849494	1364.245020	19.972000	-4.180000
	305.949500	1364.242639	19.974000	-4.220000
	306.049505	1364.242639	19.974000	-4.220000
	306.155511	1364.247402	19.976000	-4.160000
	306.249516	1364.241449	19.958000	-4.250000
	306.349522	1364.242640	19.932000	-4.190000
	306.449528	1364.243830	19.942000	-4.190000
	306.549534	1364.243830	19.964000	-4.200000
	306.649539	1364.248592	19.948000	-4.160000
	306.749545	1364.250973	19.942000	-4.180000
	306.849551	1364.253354	19.954000	-4.180000
	306.954557	1364.248592	19.940000	-4.240000
	307.049562	1364.249783	19.972000	-4.190000
	307.149568	1364.256926	19.968000	-4.140000
	307.249574	1364.253355	19.968000	-4.230000
	307.349579	1364.253355	19.958000	-4.200000
	307.449585	1364.250974	19.936000	-4.220000
	307.549591	1364.255736	19.940000	-4.160000
	307.649597	1364.255736	19.940000	-4.160000
	307.749602	1364.249783	19.976000	-4.250000
	307.849608	1364.248593	19.946000	-4.210000
	307.949614	1364.248593	19.956000	-4.200000
	308.049620	1364.247402	19.970000	-4.210000
	308.149625	1364.241450	19.954000	-4.250000
	308.249631	1364.254546	19.934000	-4.090000
	308.349637	1364.255737	19.962000	-4.190000
	308.449643	1364.250975	19.956000	-4.240000
	308.553648	1364.252165	19.958000	-4.190000
	308.649654	1364.247403	19.954000	-4.240000
	308.749660	1364.252165	19.946000	-4.160000
	308.849665	1364.260499	19.982000	-4.130000
	308.999674	1364.264071	19.946000	-4.170000
	309.099679	1364.268833	19.968000	-4.160000
	309.199685	1364.266452	19.954000	-4.220000
	309.249688	1364.266452	19.942000	-4.200000
	309.399697	1364.259309	19.782000	-4.260000
	309.499702	1364.254547	19.960000	-4.240000
	309.599708	1364.253356	19.966000	-4.210000
	309.699714	1364.256928	19.946000	-4.170000
	309.799720	1364.255738	19.968000	-4.210000
	309.899725	1364.253357	19.966000	-4.220000
	309.999731	1364.254547	19.952000	-4.190000
	310.149740	1364.248595	19.958000	-4.250000
	310.249745	1364.250976	19.968000	-4.180000
	310.349751	1364.250976	19.968000	-4.180000
	310.449757	1364.246214	19.958000	-4.240000
	310.549763	1364.250976	19.954000	-4.160000
	310.649768	1364.250976	19.950000	-4.200000
	310.749774	1364.248595	19.972000	-4.220000
	310.849780	1364.252166	19.972000	-4.170000
	310.949785	1364.254547	19.958000	-4.180000
	311.049791	1364.254547	19.956000	-4.200000
	311.149797	1364.252166	19.958000	-4.220000
	311.249803	1364.254547	19.964000	-4.180000
	311.349808	1364.258119	19.954000	-4.170000
	311.449814	1364.256929	19.922000	-4.210000
	311.549820	1364.254548	19.936000	-4.220000
	311.649826	1364.259310	19.942000	-4.160000
	311.755832	1364.261691	19.962000	-4.180000
	311.849837	1364.259310	19.940000	-4.220000
	311.949842	1364.256929	19.962000	-4.220000
	312.049849	1364.262882	19.964000	-4.150000
	312.149854	1364.256929	19.960000	-4.250000
	312.249860	1364.256929	19.960000	-4.250000
	312.349865	1364.260501	19.944000	-4.170000
	312.449871	1364.261691	19.946000	-4.190000
	312.549877	1364.248596	19.978000	-4.310000
	312.649883	1364.203362	20.130000	-4.580000
	312.749888	1364.216459	19.914000	-4.090000
	312.849894	1364.234317	19.962000	-4.050000
	312.949900	1364.239079	19.952000	-4.160000
	313.049905	1364.242651	19.954000	-4.170000
	313.149911	1364.253366	19.976000	-4.110000
	313.255918	1364.253366	19.958000	-4.200000
	313.349923	1364.256938	19.936000	-4.170000
	313.449928	1364.258128	19.948000	-4.190000
	313.549934	1364.262891	19.960000	-4.160000
	313.649940	1364.262891	19.952000	-4.200000
	313.749946	1364.258129	19.954000	-4.240000
	313.899954	1364.262891	19.950000	-4.160000
	313.999960	1364.271225	19.952000	-4.130000
	314.101966	1364.270034	19.958000	-4.210000
	314.199971	1364.268844	19.960000	-4.210000
	314.299977	1364.272415	19.962000	-4.170000
	314.399983	1364.267653	19.954000	-4.240000
	314.499989	1364.267653	19.954000	-4.240000
	314.649997	1364.262891	19.962000	-4.240000
	314.750003	1364.261701	19.946000	-4.210000
	314.850008	1364.252177	19.952000	-4.280000
	314.950014	1364.255748	19.974000	-4.170000
	315.050020	1364.250986	19.964000	-4.240000
	315.150026	1364.250986	19.944000	-4.200000
	315.250031	1364.256939	19.964000	-4.150000
	315.350037	1364.258130	19.944000	-4.190000
	315.450043	1364.249796	19.946000	-4.270000
	315.550048	1364.250987	19.936000	-4.190000
	315.650054	1364.256939	19.958000	-4.150000
	315.750060	1364.260511	19.952000	-4.170000
	315.850066	1364.260511	19.942000	-4.200000
	315.950071	1364.260511	19.950000	-4.200000
	316.050077	1364.268845	19.960000	-4.130000
	316.100080	1364.271226	19.976000	-4.180000
	316.250089	1364.271226	19.976000	-4.180000
	316.350094	1364.265274	19.972000	-4.250000
	316.450100	1364.262893	19.956000	-4.220000
	316.550106	1364.265274	19.958000	-4.180000
	316.650112	1364.270036	19.966000	-4.160000
	316.750117	1364.272417	19.938000	-4.180000
	316.850123	1364.268845	19.944000	-4.230000
	316.950129	1364.271227	19.982000	-4.180000
	317.050134	1364.265274	19.986000	-4.250000
	317.150140	1364.267655	19.958000	-4.180000
	317.250146	1364.266465	19.942000	-4.210000
	317.350152	1364.259321	19.938000	-4.260000
	317.450157	1364.253369	19.952000	-4.250000
	317.550163	1364.249797	19.944000	-4.230000
	317.650169	1364.254559	19.978000	-4.160000
	317.750175	1364.258131	19.956000	-4.170000
	317.855180	1364.258131	19.948000	-4.200000
	317.950186	1364.258131	19.956000	-4.200000
	318.050191	1364.264084	19.980000	-4.150000
	318.150198	1364.267656	19.970000	-4.170000
	318.250203	1364.267656	19.970000	-4.200000
	318.350209	1364.270037	19.966000	-4.180000
	318.450214	1364.270037	19.938000	-4.200000
	318.550220	1364.266465	19.972000	-4.230000
	318.700229	1364.266465	19.968000	-4.200000
	318.800234	1364.255751	19.960000	-4.290000
	318.900240	1364.260513	19.972000	-4.160000
	319.000246	1364.260513	19.962000	-4.200000
	319.100252	1364.260513	19.956000	-4.200000
	319.200257	1364.260513	19.954000	-4.200000
	319.300263	1364.260513	19.954000	-4.200000
	319.400269	1364.258132	19.948000	-4.220000
	319.500275	1364.259322	19.990000	-4.190000
	319.600280	1364.255751	19.958000	-4.230000
	319.700286	1364.264085	19.964000	-4.130000
	319.800292	1364.264085	19.934000	-4.200000
	319.900298	1364.261704	19.952000	-4.220000
	320.000303	1364.266466	19.958000	-4.160000
	320.100309	1364.265275	19.948000	-4.210000
	320.207315	1364.266466	19.974000	-4.190000
	320.301321	1364.262894	19.936000	-4.230000
	320.400326	1364.260513	19.944000	-4.220000
	320.504332	1364.256942	19.956000	-4.230000
	320.600338	1364.256942	19.956000	-4.200000
	320.700343	1364.261704	19.958000	-4.160000
	320.850352	1364.262895	19.982000	-4.190000
	320.950357	1364.260514	19.968000	-4.220000
	321.050363	1364.254561	19.946000	-4.250000
	321.150369	1364.258133	19.940000	-4.170000
	321.250375	1364.264085	19.952000	-4.150000
	321.350380	1364.264085	19.950000	-4.200000
	321.450386	1364.262895	19.948000	-4.210000
	321.550392	1364.265276	19.968000	-4.180000
	321.650397	1364.265276	19.968000	-4.180000
	321.750403	1364.271229	19.956000	-4.150000
	321.850409	1364.270038	19.956000	-4.210000
	321.950415	1364.264086	19.964000	-4.250000
	322.050420	1364.261705	19.954000	-4.220000
	322.150426	1364.264086	19.976000	-4.180000
	322.250432	1364.265276	19.976000	-4.190000
	322.350438	1364.261705	19.952000	-4.230000
	322.453444	1364.258133	19.942000	-4.230000
	322.549449	1364.253371	19.978000	-4.240000
	322.649455	1364.249799	19.956000	-4.230000
	322.749460	1364.242656	19.974000	-4.260000
	322.849466	1364.245038	19.960000	-4.180000
	322.949472	1364.240275	19.966000	-4.240000
	323.049478	1364.239085	19.962000	-4.210000
	323.149483	1364.247419	19.972000	-4.130000
	323.249489	1364.254562	19.946000	-4.140000
	323.399498	1364.253372	19.972000	-4.210000
	323.499503	1364.253372	19.972000	-4.210000
	323.599509	1364.255753	19.932000	-4.180000
	323.699515	1364.264087	19.954000	-4.130000
	323.799520	1364.261706	19.950000	-4.220000
	323.899526	1364.259325	19.976000	-4.220000
	323.999532	1364.260515	19.944000	-4.190000
	324.099537	1364.258134	19.926000	-4.220000
	324.199543	1364.267659	19.962000	-4.120000
	324.299549	1364.262897	19.938000	-4.240000
	324.399555	1364.262897	19.936000	-4.200000
	324.499560	1364.267659	19.942000	-4.160000
	324.599566	1364.271231	19.974000	-4.170000
	324.700572	1364.272421	19.952000	-4.190000
	324.799578	1364.273612	19.952000	-4.190000
	324.899583	1364.274802	19.960000	-4.190000
	324.999589	1364.272421	19.964000	-4.220000
	325.099595	1364.274802	19.940000	-4.180000
	325.199601	1364.273612	19.946000	-4.210000
	325.299606	1364.268850	19.940000	-4.240000
	325.399612	1364.281946	19.954000	-4.090000
	325.499618	1364.281946	19.954000	-4.090000
	325.599623	1364.281946	19.966000	-4.200000
	325.699629	1364.277184	19.958000	-4.240000
	325.799635	1364.274803	19.948000	-4.220000
	325.899641	1364.279565	19.964000	-4.160000
	325.999646	1364.286709	19.960000	-4.140000
	326.099652	1364.283137	19.952000	-4.230000
	326.199658	1364.323623	19.944000	-3.860000
	326.299664	1364.329576	19.926000	-4.150000
	326.405669	1364.320052	19.964000	-4.280000
	326.499675	1364.308146	19.960000	-4.300000
	326.599680	1364.306956	19.950000	-4.210000
	326.699687	1364.303384	19.946000	-4.230000
	326.799692	1364.298622	19.950000	-4.240000
	326.899698	1364.290288	19.978000	-4.270000
	326.999703	1364.278383	19.940000	-4.300000
	327.149712	1364.289098	19.964000	-4.110000
	327.249718	1364.287908	19.950000	-4.210000
	327.349723	1364.287908	19.960000	-4.200000
	327.449729	1364.287908	19.960000	-4.200000
	327.551735	1364.283145	19.958000	-4.240000
	327.649741	1364.290289	19.952000	-4.140000
	327.749746	1364.291479	19.974000	-4.190000
	327.849752	1364.295051	19.958000	-4.170000
	327.949758	1364.299814	19.976000	-4.160000
	328.049764	1364.293861	19.926000	-4.250000
	328.155769	1364.287908	19.944000	-4.250000
	328.249775	1364.287908	19.944000	-4.200000
	328.349781	1364.283146	19.976000	-4.240000
	328.453787	1364.284337	19.958000	-4.190000
	328.549792	1364.287908	19.930000	-4.170000
	328.649798	1364.283146	19.962000	-4.240000
	328.749804	1364.284337	19.938000	-4.190000
	328.849809	1364.284337	19.932000	-4.200000
	328.949815	1364.287908	19.932000	-4.170000
	329.099823	1364.291480	19.960000	-4.170000
	329.199829	1364.291480	19.970000	-4.200000
	329.299835	1364.298624	19.942000	-4.140000
	329.399841	1364.302196	19.952000	-4.170000
	329.499846	1364.295052	19.950000	-4.260000
	329.599852	1364.297433	19.946000	-4.180000
	329.701858	1364.298624	19.956000	-4.190000
	329.849866	1364.301005	19.948000	-4.180000
	329.949872	1364.303386	19.954000	-4.180000
	330.049878	1364.303386	19.934000	-4.200000
	330.149884	1364.303386	19.934000	-4.200000
	330.249889	1364.306958	19.972000	-4.170000
	330.349895	1364.312911	19.960000	-4.150000
	330.449901	1364.315292	19.936000	-4.180000
	330.549907	1364.311721	19.948000	-4.230000
	330.649912	1364.309339	19.924000	-4.220000
	330.749918	1364.315293	19.930000	-4.150000
	330.849924	1364.317674	19.946000	-4.180000
	330.949929	1364.314102	19.954000	-4.230000
	331.049935	1364.315293	19.950000	-4.190000
	331.153941	1364.321246	19.978000	-4.150000
	331.249947	1364.324817	19.952000	-4.170000
	331.349952	1364.323627	19.936000	-4.210000
	331.449958	1364.324817	19.926000	-4.190000
	331.549964	1364.317674	19.962000	-4.260000
	331.649970	1364.315293	19.962000	-4.220000
	331.749975	1364.320055	19.940000	-4.160000
	331.849981	1364.321246	19.954000	-4.190000
	331.999990	1364.327199	19.980000	-4.150000
	332.104995	1364.318865	19.946000	-4.270000
	332.200001	1364.318865	19.960000	-4.200000
	332.300007	1364.316484	19.962000	-4.220000
	332.400012	1364.320056	19.970000	-4.170000
	332.500018	1364.312912	19.950000	-4.260000
	332.650027	1364.310531	19.946000	-4.220000
	332.750032	1364.310531	19.950000	-4.200000
	332.850038	1364.310531	19.950000	-4.200000
	332.950044	1364.308150	19.952000	-4.220000
	333.050049	1364.310531	19.944000	-4.180000
	333.150055	1364.315294	19.958000	-4.160000
	333.250061	1364.302198	19.972000	-4.310000
	333.350067	1364.295055	19.950000	-4.260000
	333.450072	1364.290292	19.958000	-4.240000
	333.550078	1364.297436	19.964000	-4.140000
	333.650084	1364.302198	19.952000	-4.160000
	333.750090	1364.299817	19.956000	-4.220000
	333.850095	1364.309342	19.952000	-4.120000
	333.954101	1364.311723	19.960000	-4.180000
	334.053107	1364.312914	19.970000	-4.190000
	334.152112	1364.310533	19.974000	-4.220000
	334.250118	1364.312914	19.948000	-4.180000
	334.350124	1364.315295	19.968000	-4.180000
	334.450130	1364.317676	19.952000	-4.180000
	334.550135	1364.317676	19.952000	-4.200000
	334.700144	1364.318867	19.958000	-4.190000
	334.800149	1364.324820	19.958000	-4.150000
	334.900156	1364.327201	19.948000	-4.180000
	335.000161	1364.329582	19.966000	-4.180000
	335.100167	1364.327201	19.972000	-4.220000
	335.200172	1364.222460	19.696000	-5.080000
	335.300178	1364.222460	19.696000	-5.080000
	335.400184	1364.209365	20.126000	-4.310000
	335.500190	1364.191509	20.110000	-4.350000
	335.600195	1364.178414	20.118000	-4.310000
	335.700201	1364.164130	20.112000	-4.320000
	335.800207	1364.160558	20.128000	-4.230000
	335.900213	1364.153416	20.132000	-4.260000
	336.000218	1364.143892	20.134000	-4.280000
	336.102224	1364.145083	20.108000	-4.190000
	336.200230	1364.146273	20.128000	-4.190000
	336.300235	1364.142702	20.136000	-4.230000
	336.400241	1364.147464	20.118000	-4.160000
	336.502247	1364.141512	20.122000	-4.250000
	336.600253	1364.140321	20.114000	-4.210000
	336.700258	1364.133179	20.124000	-4.260000
	336.850267	1364.129608	20.120000	-4.230000
	336.951272	1364.127227	20.108000	-4.220000
	337.050278	1364.122465	20.120000	-4.240000
	337.150284	1364.126037	20.162000	-4.170000
	337.250290	1364.120085	20.112000	-4.250000
	337.400298	1364.116513	20.110000	-4.230000
	337.500304	1364.115323	20.138000	-4.210000
	337.610311	1364.118894	20.118000	-4.170000
	337.705316	1364.120085	20.126000	-4.190000
	337.800321	1364.116513	20.138000	-4.230000
	337.901327	1364.112942	20.132000	-4.230000
	338.053336	1364.116513	20.144000	-4.170000
	338.150341	1364.114133	20.112000	-4.220000
	338.250347	1364.117704	20.152000	-4.170000
	338.350353	1364.114133	20.140000	-4.230000
	338.450358	1364.116514	20.138000	-4.180000
	338.550364	1364.116514	20.138000	-4.180000
	338.650370	1364.118894	20.122000	-4.180000
	338.750376	1364.116514	20.142000	-4.220000
	338.850381	1364.121275	20.132000	-4.160000
	338.950387	1364.121275	20.156000	-4.200000
	339.050393	1364.120085	20.136000	-4.210000
	339.150398	1364.121275	20.138000	-4.190000
	339.250404	1364.118895	20.134000	-4.220000
	339.350410	1364.116514	20.152000	-4.220000
	339.450416	1364.122466	20.132000	-4.150000
	339.555422	1364.123656	20.124000	-4.190000
	339.650427	1364.121276	20.128000	-4.220000
	339.750433	1364.127228	20.138000	-4.150000
	339.853439	1364.128418	20.136000	-4.190000
	339.949444	1364.133180	20.136000	-4.160000
	340.049450	1364.134370	20.130000	-4.190000
	340.149456	1364.135561	20.134000	-4.190000
	340.301464	1364.141513	20.132000	-4.150000
	340.399470	1364.146275	20.138000	-4.160000
	340.502476	1364.146275	20.128000	-4.200000
	340.599481	1364.147466	20.140000	-4.190000
	340.700487	1364.153418	20.124000	-4.150000
	340.799493	1364.149847	20.130000	-4.230000
	340.949502	1364.149847	20.130000	-4.230000
	341.049507	1364.151037	20.128000	-4.190000
	341.099510	1364.147466	20.162000	-4.230000
	341.249518	1364.151037	20.146000	-4.170000
	341.349524	1364.148656	20.126000	-4.220000
	341.449530	1364.145085	20.144000	-4.230000
	341.549536	1364.143894	20.142000	-4.210000
	341.649541	1364.143894	20.126000	-4.200000
	341.749547	1364.137942	20.116000	-4.250000
	341.849553	1364.156991	20.170000	-4.040000
	341.949559	1364.155800	20.118000	-4.210000
	342.049564	1364.162943	20.130000	-4.140000
	342.150570	1364.168896	20.130000	-4.150000
	342.249576	1364.164134	20.116000	-4.240000
	342.349581	1364.162943	20.124000	-4.210000
	342.449587	1364.164134	20.138000	-4.190000
	342.549593	1364.167705	20.112000	-4.170000
	342.649599	1364.171277	20.124000	-4.170000
	342.749604	1364.173658	20.092000	-4.180000
	342.899613	1364.176039	20.116000	-4.180000
	342.999619	1364.171277	20.144000	-4.240000
	343.100625	1364.165325	20.122000	-4.250000
	343.199630	1364.156992	20.122000	-4.270000
	343.299636	1364.151040	20.144000	-4.250000
	343.399642	1364.147468	20.134000	-4.230000
	343.499647	1364.148659	20.136000	-4.190000
	343.649656	1364.154611	20.130000	-4.150000
	343.749661	1364.159373	20.150000	-4.160000
	343.849667	1364.155802	20.160000	-4.230000
	343.949673	1364.153421	20.136000	-4.220000
	344.049679	1364.153421	20.124000	-4.200000
	344.149684	1364.153421	20.124000	-4.200000
	344.249690	1364.149849	20.136000	-4.230000
	344.350696	1364.147469	20.128000	-4.220000
	344.449701	1364.147469	20.126000	-4.200000
	344.549707	1364.147469	20.148000	-4.200000
	344.649713	1364.146278	20.134000	-4.210000
	344.749719	1364.145088	20.164000	-4.210000
	344.856725	1364.143897	20.130000	-4.210000
	344.949730	1364.143897	20.114000	-4.200000
	345.049736	1364.142707	20.142000	-4.210000
	345.149742	1364.143897	20.126000	-4.190000
	345.249747	1364.139136	20.138000	-4.240000
	345.349753	1364.146278	20.138000	-4.140000
	345.449759	1364.145088	20.112000	-4.210000
	345.549765	1364.139136	20.140000	-4.250000
	345.699773	1364.137945	20.144000	-4.210000
	345.799779	1364.137945	20.118000	-4.200000
	345.899785	1364.142707	20.124000	-4.160000
	345.999790	1364.140326	20.148000	-4.220000
	346.099796	1364.148660	20.136000	-4.130000
	346.199801	1364.151041	20.128000	-4.180000
	346.299808	1364.151041	20.128000	-4.180000
	346.399813	1364.148660	20.150000	-4.220000
	346.499819	1364.147469	20.146000	-4.210000
	346.599824	1364.143898	20.128000	-4.230000
	346.699830	1364.140327	20.158000	-4.230000
	346.799836	1364.134375	20.128000	-4.250000
	346.899842	1364.136756	20.102000	-4.180000
	346.999847	1364.143898	20.118000	-4.140000
	347.099853	1364.143898	20.142000	-4.200000
	347.209859	1364.139137	20.112000	-4.240000
	347.301865	1364.140327	20.126000	-4.190000
	347.399870	1364.142708	20.118000	-4.180000
	347.499876	1364.146279	20.150000	-4.170000
	347.599882	1364.154613	20.140000	-4.130000
	347.700888	1364.158184	20.126000	-4.170000
	347.799893	1364.156994	20.144000	-4.210000
	347.949902	1364.154613	20.122000	-4.220000
	348.071909	1364.146280	20.122000	-4.270000
	348.149913	1364.154613	20.138000	-4.130000
	348.249919	1364.146280	20.136000	-4.270000
	348.399928	1364.145090	20.108000	-4.210000
	348.500933	1364.142709	20.140000	-4.220000
	348.599939	1364.142709	20.112000	-4.200000
	348.703945	1364.148661	20.114000	-4.150000
	348.849953	1364.143900	20.136000	-4.240000
	348.949959	1364.145090	20.124000	-4.190000
	349.049964	1364.145090	20.124000	-4.190000
	349.149971	1364.152233	20.158000	-4.140000
	349.249976	1364.160566	20.112000	-4.130000
	349.350982	1364.166519	20.140000	-4.150000
	349.449987	1364.167709	20.126000	-4.190000
	349.551993	1364.167709	20.122000	-4.200000
	349.649999	1364.168900	20.124000	-4.190000
	349.750005	1364.165328	20.142000	-4.230000
	349.850010	1364.162948	20.110000	-4.220000
	349.950016	1364.164138	20.144000	-4.190000
	350.050022	1364.162948	20.144000	-4.210000
	350.200030	1364.161757	20.088000	-4.210000
	350.250033	1364.161757	20.088000	-4.210000
	350.400042	1364.165328	20.116000	-4.170000
	350.500048	1364.168900	20.138000	-4.170000
	350.600053	1364.166519	20.138000	-4.220000
	350.700059	1364.170090	20.104000	-4.170000
	350.800065	1364.168900	20.112000	-4.210000
	350.903070	1364.171281	20.134000	-4.180000
	351.000076	1364.172471	20.126000	-4.190000
	351.101082	1364.172471	20.136000	-4.200000
	351.200088	1364.168900	20.132000	-4.230000
	351.300093	1364.167710	20.126000	-4.210000
	351.400099	1364.160567	20.134000	-4.260000
	351.501105	1364.161757	20.122000	-4.190000
	351.600111	1364.158186	20.130000	-4.230000
	351.700116	1364.158186	20.130000	-4.230000
	351.800122	1364.161758	20.122000	-4.170000
	351.900127	1364.164138	20.106000	-4.180000
	352.000134	1364.166519	20.136000	-4.180000
	352.100139	1364.166519	20.096000	-4.200000
	352.200145	1364.162948	20.146000	-4.230000
	352.300150	1364.167710	20.118000	-4.160000
	352.400156	1364.164139	20.116000	-4.230000
	352.500162	1364.158186	20.120000	-4.250000
	352.604168	1364.164139	20.120000	-4.150000
	352.700173	1364.160568	20.122000	-4.230000
	352.800179	1364.160568	20.112000	-4.200000
	352.900185	1364.160568	20.140000	-4.200000
	353.000191	1364.158187	20.132000	-4.220000
	353.101196	1364.162949	20.128000	-4.160000
	353.200202	1364.160568	20.116000	-4.220000
	353.351211	1364.162949	20.138000	-4.180000
	353.453217	1364.171282	20.118000	-4.130000
	353.550222	1364.172473	20.128000	-4.190000
	353.650228	1364.165330	20.138000	-4.260000
	353.752234	1364.158187	20.120000	-4.260000
	353.900242	1364.166521	20.126000	-4.130000
	354.000248	1364.167711	20.132000	-4.190000
	354.100254	1364.171283	20.136000	-4.170000
	354.200259	1364.172473	20.144000	-4.190000
	354.300265	1364.176045	20.118000	-4.170000
	354.400270	1364.174854	20.114000	-4.210000
	354.500277	1364.178426	20.106000	-4.170000
	354.650285	1364.179616	20.134000	-4.190000
	354.750291	1364.179616	20.112000	-4.200000
	354.850296	1364.179616	20.112000	-4.200000
	354.950302	1364.184378	20.126000	-4.160000
	355.050308	1364.183188	20.132000	-4.210000
	355.150313	1364.189140	20.104000	-4.150000
	355.250319	1364.186759	20.140000	-4.220000
	355.350325	1364.191521	20.120000	-4.160000
	355.450331	1364.193902	20.102000	-4.180000
	355.550336	1364.195093	20.120000	-4.190000
	355.650342	1364.191521	20.128000	-4.230000
	355.750348	1364.190331	20.100000	-4.210000
	355.852354	1364.189140	20.130000	-4.210000
	355.950359	1364.184378	20.130000	-4.240000
	356.050365	1364.185569	20.118000	-4.190000
	356.150371	1364.186759	20.132000	-4.190000
	356.250377	1364.187950	20.128000	-4.190000
	356.350382	1364.184378	20.110000	-4.230000
	356.500391	1364.181998	20.104000	-4.220000
	356.600397	1364.187950	20.116000	-4.150000
	356.700402	1364.184379	20.134000	-4.230000
	356.800408	1364.187950	20.114000	-4.170000
	356.900414	1364.186760	20.138000	-4.210000
	357.000420	1364.178427	20.140000	-4.270000
	357.150428	1364.180807	20.128000	-4.180000
	357.254434	1364.178427	20.120000	-4.220000
	357.350440	1364.173665	20.112000	-4.240000
	357.449445	1364.181998	20.130000	-4.130000
	357.549451	1364.176046	20.124000	-4.250000
	357.649457	1364.174856	20.124000	-4.210000
	357.799465	1364.180808	20.128000	-4.150000
	357.900471	1364.179618	20.146000	-4.210000
	357.999476	1364.180808	20.138000	-4.190000
	358.101482	1364.179618	20.120000	-4.210000
	358.199488	1364.179618	20.130000	-4.200000
	358.299494	1364.181999	20.106000	-4.180000
	358.449502	1364.180808	20.128000	-4.210000
	358.549508	1364.186761	20.122000	-4.150000
	358.649514	1364.186761	20.122000	-4.150000
	358.749519	1364.184380	20.126000	-4.220000
	358.849525	1364.185570	20.146000	-4.190000
	358.949531	1364.185570	20.146000	-4.200000
	359.049537	1364.183189	20.124000	-4.220000
	359.149542	1364.181999	20.132000	-4.210000
	359.249548	1364.184380	20.122000	-4.180000
	359.349554	1364.187951	20.130000	-4.170000
	359.449559	1364.190332	20.130000	-4.180000
	359.556566	1364.189142	20.134000	-4.210000
	359.649571	1364.190332	20.128000	-4.190000
	359.749577	1364.190332	20.128000	-4.190000
	359.849582	1364.195094	20.124000	-4.160000
	359.949588	1364.186761	20.128000	-4.270000
	360.049594	1364.191523	20.134000	-4.160000
	360.149600	1364.191523	20.144000	-4.200000
	360.249605	1364.184380	20.126000	-4.260000
	360.349611	1364.185571	20.120000	-4.190000
	360.449616	1364.184380	20.144000	-4.210000
	360.549623	1364.189142	20.128000	-4.160000
	360.649628	1364.191523	20.132000	-4.180000
	360.749634	1364.189142	20.132000	-4.220000
	360.849639	1364.183190	20.132000	-4.250000
	360.949645	1364.185571	20.104000	-4.180000
	361.049651	1364.184381	20.122000	-4.210000
	361.149657	1364.183190	20.122000	-4.210000
	361.249662	1364.187952	20.106000	-4.160000
	361.349668	1364.191524	20.134000	-4.170000
	361.499677	1364.191524	20.122000	-4.200000
	361.599682	1364.185571	20.142000	-4.250000
	361.699688	1364.180809	20.106000	-4.240000
	361.799694	1364.178429	20.122000	-4.220000
	361.899700	1364.183190	20.112000	-4.160000
	361.999705	1364.183190	20.126000	-4.200000
	362.149714	1364.187952	20.130000	-4.160000
	362.249720	1364.182000	20.134000	-4.250000
	362.349725	1364.189143	20.114000	-4.140000
	362.449731	1364.190334	20.122000	-4.190000
	362.549737	1364.186762	20.114000	-4.230000
	362.650743	1364.186762	20.114000	-4.230000
	362.749748	1364.197477	20.110000	-4.110000
	362.849754	1364.199858	20.144000	-4.180000
	362.949759	1364.203430	20.120000	-4.170000
	363.049766	1364.214144	20.134000	-4.110000
	363.149771	1364.217716	20.112000	-4.170000
	363.249777	1364.208192	20.132000	-4.280000
	363.349782	1364.203430	20.130000	-4.240000
	363.449788	1364.197478	20.120000	-4.250000
	363.549794	1364.193907	20.138000	-4.230000
	363.655800	1364.196288	20.144000	-4.180000
	363.749805	1364.196288	20.124000	-4.200000
	363.849811	1364.195097	20.118000	-4.210000
	363.949817	1364.190335	20.138000	-4.240000
	364.049823	1364.192716	20.122000	-4.180000
	364.149828	1364.198669	20.120000	-4.150000
	364.249834	1364.198669	20.120000	-4.150000
	364.349840	1364.201050	20.114000	-4.180000
	364.449845	1364.211765	20.102000	-4.110000
	364.549851	1364.211765	20.112000	-4.200000
	364.649857	1364.216527	20.122000	-4.160000
	364.749863	1364.204622	20.120000	-4.300000
	364.849868	1364.209384	20.106000	-4.160000
	364.956874	1364.209384	20.140000	-4.200000
	365.049880	1364.214146	20.156000	-4.160000
	365.149886	1364.215337	20.118000	-4.190000
	365.249891	1364.210575	20.116000	-4.240000
	365.349897	1364.210575	20.140000	-4.200000
	365.449903	1364.203432	20.104000	-4.260000
	365.549909	1364.211766	20.132000	-4.130000
	365.699917	1364.208194	20.116000	-4.230000
	365.799923	1364.207004	20.120000	-4.210000
	365.899929	1364.208194	20.130000	-4.190000
	365.999934	1364.208194	20.132000	-4.200000
	366.099940	1364.220100	20.120000	-4.100000
	366.199945	1364.212957	20.116000	-4.260000
	366.299952	1364.216529	20.118000	-4.170000
	366.399957	1364.210576	20.134000	-4.250000
	366.499963	1364.207005	20.136000	-4.230000
	366.649971	1364.217720	20.120000	-4.110000
	366.749977	1364.211767	20.152000	-4.250000
	366.849983	1364.211767	20.152000	-4.250000
	366.950988	1364.210577	20.120000	-4.210000
	367.049994	1364.212958	20.126000	-4.180000
	367.151000	1364.218910	20.124000	-4.150000
	367.250006	1364.217720	20.120000	-4.210000
	367.351011	1364.218910	20.138000	-4.190000
	367.450017	1364.222482	20.130000	-4.170000
	367.550023	1364.223672	20.122000	-4.190000
	367.650029	1364.226053	20.106000	-4.180000
	367.750034	1364.221292	20.098000	-4.240000
	367.850040	1364.223673	20.104000	-4.180000
	367.961046	1364.223673	20.150000	-4.200000
	368.053051	1364.214149	20.126000	-4.280000
	368.152057	1364.212958	20.130000	-4.210000
	368.250063	1364.210577	20.130000	-4.220000
	368.350069	1364.211768	20.134000	-4.190000
	368.453074	1364.214149	20.134000	-4.180000
	368.550080	1364.210577	20.106000	-4.230000
	368.700089	1364.216530	20.142000	-4.150000
	368.800094	1364.220102	20.124000	-4.170000
	368.901100	1364.217721	20.136000	-4.220000
	369.000106	1364.216530	20.116000	-4.210000
	369.100111	1364.214149	20.122000	-4.220000
	369.200117	1364.228436	20.116000	-4.080000
	369.350126	1364.229626	20.118000	-4.190000
	369.450131	1364.228436	20.112000	-4.210000
	369.550137	1364.227245	20.112000	-4.210000
	369.653143	1364.229626	20.138000	-4.180000
	369.750149	1364.217722	20.132000	-4.300000
	369.900157	1364.216531	20.136000	-4.210000
	370.000163	1364.211769	20.128000	-4.240000
	370.110169	1364.211769	20.126000	-4.200000
	370.200174	1364.209388	20.136000	-4.220000
	370.300180	1364.207007	20.120000	-4.220000
	370.400186	1364.210579	20.134000	-4.170000
	370.550194	1364.210579	20.120000	-4.200000
	370.650200	1364.210579	20.120000	-4.200000
	370.750206	1364.210579	20.130000	-4.200000
	370.850212	1364.216532	20.106000	-4.150000
	370.953218	1364.215341	20.148000	-4.210000
	371.051223	1364.212960	20.152000	-4.220000
	371.150229	1364.209389	20.150000	-4.230000
	371.251235	1364.211770	20.140000	-4.180000
	371.350240	1364.212960	20.122000	-4.190000
	371.453246	1364.214151	20.152000	-4.190000
	371.550251	1364.217722	20.126000	-4.170000
	371.656258	1364.215341	20.124000	-4.220000
	371.750263	1364.220103	20.126000	-4.160000
	371.850269	1364.223675	20.140000	-4.170000
	371.950274	1364.223675	20.140000	-4.170000
	372.050280	1364.221294	20.130000	-4.220000
	372.150286	1364.227247	20.128000	-4.150000
	372.243291	1364.221294	20.116000	-4.250000
	372.350297	1364.221294	20.134000	-4.200000
	372.457304	1364.222485	20.106000	-4.190000
	372.550309	1364.224866	20.116000	-4.180000
	372.650314	1364.226056	20.112000	-4.190000
	372.752320	1364.222485	20.108000	-4.230000
	372.850326	1364.223675	20.134000	-4.190000
	372.950332	1364.224866	20.134000	-4.190000
	373.050337	1364.217723	20.114000	-4.260000
	373.150343	1364.216532	20.104000	-4.210000
	373.300352	1364.217723	20.104000	-4.190000
	373.400357	1364.218913	20.150000	-4.190000
	373.500363	1364.222485	20.152000	-4.170000
	373.600369	1364.222485	20.152000	-4.170000
	373.700375	1364.217723	20.132000	-4.240000
	373.800380	1364.214151	20.090000	-4.230000
	373.900386	1364.211771	20.100000	-4.220000
	374.000392	1364.221295	20.124000	-4.120000
	374.100398	1364.222485	20.106000	-4.190000
	374.215404	1364.222485	20.112000	-4.200000
	374.300409	1364.223676	20.114000	-4.190000
	374.400414	1364.226057	20.144000	-4.180000
	374.500420	1364.229628	20.114000	-4.170000
	374.600426	1364.229628	20.114000	-4.170000
	374.750434	1364.221295	20.140000	-4.270000
	374.850441	1364.226057	20.124000	-4.160000
	374.949446	1364.226057	20.138000	-4.200000
	375.049452	1364.221295	20.120000	-4.240000
	375.149457	1364.229629	20.134000	-4.130000
	375.249463	1364.220105	20.134000	-4.280000
	375.349469	1364.223677	20.114000	-4.170000
	375.449475	1364.227248	20.130000	-4.170000
	375.549480	1364.226058	20.126000	-4.210000
	375.651486	1364.229630	20.128000	-4.170000
	375.750492	1364.226058	20.122000	-4.230000
	375.849497	1364.223677	20.150000	-4.220000
	375.949503	1364.224868	20.102000	-4.190000
	376.049509	1364.229630	20.120000	-4.160000
	376.149515	1364.232011	20.110000	-4.180000
	376.249520	1364.233201	20.138000	-4.190000
	376.349526	1364.229630	20.116000	-4.230000
	376.449532	1364.232011	20.118000	-4.180000
	376.599540	1364.233201	20.146000	-4.190000
	376.699546	1364.233201	20.146000	-4.190000
	376.799552	1364.228439	20.140000	-4.240000
	376.899558	1364.221296	20.116000	-4.260000
	376.999563	1364.227249	20.132000	-4.150000
	377.102569	1364.227249	20.128000	-4.200000
	377.199575	1364.217725	20.090000	-4.280000
	377.299581	1364.217725	20.114000	-4.200000
	377.399586	1364.215344	20.122000	-4.220000
	377.499592	1364.212963	20.132000	-4.220000
	377.599597	1364.217725	20.144000	-4.160000
	377.699604	1364.216535	20.112000	-4.210000
	377.799609	1364.215344	20.148000	-4.210000
	377.900615	1364.221297	20.128000	-4.150000
	378.007621	1364.220107	20.128000	-4.210000
	378.099626	1364.220107	20.128000	-4.210000
	378.199632	1364.217726	20.132000	-4.220000
	378.299638	1364.221297	20.118000	-4.170000
	378.399643	1364.220107	20.100000	-4.210000
	378.499649	1364.226059	20.132000	-4.150000
	378.599655	1364.227250	20.114000	-4.190000
	378.699660	1364.224869	20.126000	-4.220000
	378.799666	1364.229631	20.118000	-4.160000
	378.905673	1364.223678	20.126000	-4.250000
	378.999678	1364.220107	20.108000	-4.230000
	379.101684	1364.223679	20.104000	-4.170000
	379.199689	1364.224869	20.122000	-4.190000
	379.299695	1364.229631	20.102000	-4.160000
	379.399701	1364.217727	20.130000	-4.300000
	379.549709	1364.218917	20.118000	-4.190000
	379.649715	1364.220108	20.140000	-4.190000
	379.749721	1364.217727	20.104000	-4.220000
	379.849726	1364.218917	20.102000	-4.190000
	379.999735	1364.218917	20.102000	-4.190000
	380.099741	1364.223679	20.118000	-4.160000
	380.199746	1364.230822	20.114000	-4.140000
	380.299752	1364.221299	20.132000	-4.280000
	380.399758	1364.228442	20.124000	-4.140000
	380.499763	1364.228442	20.108000	-4.200000
	380.599769	1364.228442	20.132000	-4.200000
	380.699775	1364.232013	20.108000	-4.170000
	380.803781	1364.234395	20.122000	-4.180000
	380.900786	1364.232014	20.116000	-4.220000
	380.999792	1364.232014	20.112000	-4.200000
	381.099798	1364.230823	20.128000	-4.210000
	381.199803	1364.230823	20.114000	-4.200000
	381.299809	1364.232014	20.140000	-4.190000
	381.399815	1364.236776	20.150000	-4.160000
	381.499821	1364.232014	20.098000	-4.240000
	381.651829	1364.232014	20.120000	-4.200000
	381.749835	1364.227252	20.106000	-4.240000
	381.849841	1364.222490	20.116000	-4.240000
	381.949846	1364.224871	20.136000	-4.180000
	382.049852	1364.230823	20.134000	-4.150000
	382.149858	1364.233204	20.126000	-4.180000
	382.249864	1364.233204	20.144000	-4.200000
	382.350869	1364.233204	20.144000	-4.200000
	382.449875	1364.230823	20.122000	-4.220000
	382.550881	1364.230823	20.114000	-4.200000
	382.649887	1364.233205	20.140000	-4.180000
	382.749892	1364.229633	20.134000	-4.230000
	382.849898	1364.232014	20.112000	-4.180000
	382.949903	1364.239157	20.104000	-4.140000
	383.049909	1364.246301	20.136000	-4.140000
	383.153915	1364.241539	20.156000	-4.240000
	383.251921	1364.241539	20.108000	-4.200000
	383.349926	1364.248682	20.128000	-4.140000
	383.449932	1364.242729	20.116000	-4.250000
	383.549938	1364.237967	20.118000	-4.240000
	383.649944	1364.242730	20.112000	-4.160000
	383.801952	1364.242730	20.112000	-4.160000
	383.899958	1364.236777	20.122000	-4.250000
	383.999964	1364.233206	20.108000	-4.230000
	384.099969	1364.234396	20.110000	-4.190000
	384.199975	1364.252255	20.072000	-4.050000
	384.299981	1364.252255	20.168000	-4.200000
	384.399987	1364.258208	20.128000	-4.150000
	384.499992	1364.259398	20.122000	-4.190000
	384.599998	1364.261780	20.104000	-4.180000
	384.700004	1364.251065	20.134000	-4.290000
	384.802010	1364.252256	20.102000	-4.190000
	384.900015	1364.253446	20.148000	-4.190000
	385.000021	1364.249875	20.134000	-4.230000
	385.100027	1364.255827	20.124000	-4.150000
	385.206033	1364.249875	20.122000	-4.250000
	385.300038	1364.255828	20.118000	-4.150000
	385.400044	1364.259399	20.128000	-4.170000
	385.500050	1364.274877	20.116000	-4.070000
	385.602056	1364.278449	20.130000	-4.170000
	385.701061	1364.279640	20.132000	-4.190000
	385.800066	1364.276068	20.100000	-4.230000
	385.900072	1364.283211	20.106000	-4.140000
	386.000078	1364.273687	20.116000	-4.280000
	386.100084	1364.273687	20.116000	-4.280000
	386.250093	1364.270116	20.126000	-4.230000
	386.350098	1364.265354	20.128000	-4.240000
	386.450104	1364.264163	20.112000	-4.210000
	386.550109	1364.266544	20.122000	-4.180000
	386.650115	1364.259401	20.124000	-4.260000
	386.750121	1364.257020	20.118000	-4.220000
	386.850127	1364.255829	20.134000	-4.210000
	386.950132	1364.252258	20.116000	-4.230000
	387.050138	1364.259401	20.128000	-4.140000
	387.150144	1364.254639	20.118000	-4.240000
	387.250150	1364.245115	20.130000	-4.280000
	387.350155	1364.249877	20.132000	-4.160000
	387.451161	1364.249877	20.134000	-4.200000
	387.550167	1364.258211	20.120000	-4.130000
	387.650172	1364.255830	20.144000	-4.220000
	387.750178	1364.254640	20.118000	-4.210000
	387.850184	1364.260593	20.140000	-4.150000
	387.950190	1364.255830	20.136000	-4.240000
	388.051196	1364.254640	20.130000	-4.210000
	388.150201	1364.249878	20.110000	-4.240000
	388.250207	1364.253450	20.140000	-4.170000
	388.350213	1364.242735	20.130000	-4.290000
	388.450218	1364.242735	20.130000	-4.290000
	388.600227	1364.243926	20.118000	-4.190000
	388.700233	1364.246307	20.138000	-4.180000
	388.800238	1364.242735	20.116000	-4.230000
	388.900244	1364.245116	20.092000	-4.180000
	389.000250	1364.248688	20.134000	-4.170000
	389.100255	1364.247497	20.128000	-4.210000
	389.200261	1364.246307	20.124000	-4.210000
	389.300267	1364.248688	20.118000	-4.180000
	389.400272	1364.240354	20.104000	-4.270000
	389.503278	1364.246307	20.132000	-4.150000
	389.600284	1364.247498	20.138000	-4.190000
	389.702290	1364.248688	20.104000	-4.190000
	389.800295	1364.248688	20.166000	-4.200000
	389.900301	1364.241545	20.168000	-4.260000
	390.000307	1364.247498	20.132000	-4.150000
	390.100313	1364.246308	20.092000	-4.210000
	390.200318	1364.246308	20.092000	-4.210000
	390.300324	1364.252260	20.128000	-4.150000
	390.401330	1364.246308	20.136000	-4.250000
	390.500335	1364.249879	20.098000	-4.170000
	390.600341	1364.248689	20.116000	-4.210000
	390.700347	1364.249879	20.118000	-4.190000
	390.800353	1364.254642	20.110000	-4.160000
	390.900358	1364.254642	20.108000	-4.200000
	391.000364	1364.257023	20.102000	-4.180000
	391.100370	1364.252261	20.138000	-4.240000
	391.200376	1364.251070	20.120000	-4.210000
	391.303381	1364.260595	20.118000	-4.120000
	391.402387	1364.267738	20.128000	-4.140000
	391.500392	1364.265357	20.114000	-4.220000
	391.600399	1364.262976	20.110000	-4.220000
	391.700404	1364.262976	20.110000	-4.220000
	391.800410	1364.266548	20.138000	-4.170000
	391.900415	1364.264167	20.108000	-4.220000
	392.000421	1364.266548	20.154000	-4.180000
	392.100427	1364.268929	20.134000	-4.180000
	392.200433	1364.262976	20.102000	-4.250000
	392.304439	1364.270120	20.134000	-4.140000
	392.399444	1364.270120	20.118000	-4.200000
	392.499450	1364.273691	20.124000	-4.170000
	392.599455	1364.272501	20.128000	-4.210000
	392.700461	1364.273691	20.122000	-4.190000
	392.799467	1364.273691	20.132000	-4.200000
	392.899473	1364.267739	20.106000	-4.250000
	392.999478	1364.272501	20.122000	-4.160000
	393.099484	1364.277263	20.120000	-4.160000
	393.199490	1364.271311	20.128000	-4.250000
	393.301496	1364.274882	20.112000	-4.170000
	393.399501	1364.274882	20.124000	-4.200000
	393.500507	1364.265358	20.104000	-4.280000
	393.649516	1364.261787	20.098000	-4.230000
	393.749521	1364.266549	20.116000	-4.160000
	393.850527	1364.266549	20.116000	-4.200000
	393.949533	1364.270121	20.126000	-4.170000
	394.049539	1364.271311	20.154000	-4.190000
	394.149544	1364.272502	20.130000	-4.190000
	394.299553	1364.270121	20.132000	-4.220000
	394.399559	1364.276074	20.096000	-4.150000
	394.500564	1364.272502	20.130000	-4.230000
	394.599570	1364.272502	20.130000	-4.230000
	394.700576	1364.266549	20.140000	-4.250000
	394.799582	1364.272502	20.116000	-4.150000
	394.899587	1364.273693	20.114000	-4.190000
	394.999593	1364.265359	20.114000	-4.270000
	395.099598	1364.259406	20.122000	-4.250000
	395.201604	1364.259406	20.122000	-4.200000
	395.299610	1364.258216	20.136000	-4.210000
	395.399616	1364.261788	20.100000	-4.170000
	395.505622	1364.265359	20.138000	-4.170000
	395.599627	1364.268931	20.114000	-4.170000
	395.699633	1364.268931	20.114000	-4.170000
