LabVIEW Measurement	
Writer_Version	2
Reader_Version	2
Separator	Tab
Decimal_Separator	.
Multi_Headings	No
X_Columns	No
Time_Pref	Relative
Operator	Herve
Date	2023/07/27
Time	15:20:11.6781167984008789062
***End_of_Header***	
	
Channels	4				
Samples	3088	3088	3088	3088	
Date	1904/01/01	1904/01/01	1904/01/01	1904/01/01	
Time	09:00:00	09:00:00	09:00:00	09:00:00	
Y_Unit_Label	s	Hz	mV	°	
X_Dimension	Time	Time	Time	Time	
X0	0.0000000000000000E+0	0.0000000000000000E+0	0.0000000000000000E+0	0.0000000000000000E+0	
Delta_X	1.000000	1.000000	1.000000	1.000000	
***End_of_Header***					
X_Value	Time	Res.Frequency	Amplitude	Phase	Comment
	0.050003	1588.048269	28.330000	-8.770000
	0.150008	1588.049655	28.334000	-8.790000
	0.250014	1588.049655	28.324000	-8.800000
	0.350020	1588.052427	28.320000	-8.780000
	0.450026	1588.053812	28.354000	-8.790000
	0.500029	1588.055198	28.314000	-8.790000
	0.650037	1588.053813	28.348000	-8.810000
	0.750043	1588.059356	28.318000	-8.760000
	0.850049	1588.057970	28.328000	-8.810000
	0.950054	1588.051041	28.324000	-8.850000
	1.050060	1588.053813	28.358000	-8.780000
	1.200068	1588.049655	28.330000	-8.830000
	1.300074	1588.053813	28.348000	-8.770000
	1.400080	1588.053813	28.336000	-8.800000
	1.500086	1588.052427	28.300000	-8.810000
	1.650094	1588.049655	28.326000	-8.820000
	1.750100	1588.048270	28.314000	-8.810000
	1.850106	1588.056585	28.348000	-8.740000
	1.950111	1588.051041	28.342000	-8.840000
	2.100120	1588.052427	28.314000	-8.790000
	2.200126	1588.051042	28.340000	-8.810000
	2.300131	1588.057971	28.326000	-8.750000
	2.400137	1588.060743	28.308000	-8.780000
	2.550146	1588.059357	28.324000	-8.810000
	2.650151	1588.062128	28.344000	-8.780000
	2.750157	1588.059357	28.328000	-8.820000
	2.850163	1588.059357	28.350000	-8.800000
	2.950169	1588.057971	28.310000	-8.810000
	3.100177	1588.057971	28.342000	-8.800000
	3.200183	1588.051042	28.356000	-8.850000
	3.300189	1588.055199	28.338000	-8.770000
	3.400194	1588.053814	28.346000	-8.810000
	3.550203	1588.053814	28.346000	-8.810000
	3.650208	1588.052428	28.322000	-8.790000
	3.750214	1588.052428	28.322000	-8.790000
	3.855220	1588.055199	28.326000	-8.780000
	3.955226	1588.055199	28.312000	-8.800000
	4.050231	1588.051042	28.334000	-8.830000
	4.150237	1588.056585	28.314000	-8.760000
	4.251243	1588.062129	28.342000	-8.760000
	4.350249	1588.055200	28.332000	-8.850000
	4.457255	1588.055200	28.346000	-8.800000
	4.550260	1588.052428	28.340000	-8.820000
	4.650266	1588.057972	28.342000	-8.760000
	4.750271	1588.053814	28.326000	-8.830000
	4.850277	1588.052428	28.328000	-8.810000
	5.000286	1588.049657	28.318000	-8.820000
	5.100292	1588.044113	28.348000	-8.840000
	5.204298	1588.049657	28.340000	-8.760000
	5.300303	1588.048271	28.378000	-8.810000
	5.450312	1588.051043	28.334000	-8.780000
	5.550317	1588.049657	28.334000	-8.810000
	5.650323	1588.055200	28.340000	-8.760000
	5.750329	1588.051043	28.338000	-8.830000
	5.900337	1588.048271	28.338000	-8.820000
	6.000343	1588.049657	28.372000	-8.790000
	6.100349	1588.048271	28.324000	-8.810000
	6.200355	1588.055201	28.336000	-8.750000
	6.300360	1588.060744	28.334000	-8.760000
	6.450369	1588.055201	28.348000	-8.840000
	6.550375	1588.052429	28.346000	-8.820000
	6.650380	1588.053815	28.316000	-8.790000
	6.814390	1588.056587	28.304000	-8.780000
	6.900394	1588.056587	28.304000	-8.780000
	7.000400	1588.053815	28.338000	-8.820000
	7.100406	1588.046886	28.312000	-8.850000
	7.200412	1588.048272	28.314000	-8.790000
	7.300417	1588.051043	28.336000	-8.780000
	7.400423	1588.056587	28.342000	-8.760000
	7.500429	1588.055201	28.316000	-8.810000
	7.600434	1588.053815	28.338000	-8.810000
	7.700440	1588.049658	28.340000	-8.830000
	7.800446	1588.015015	28.328000	-9.050000
	7.900452	1588.100962	28.244000	-8.180000
	8.000457	1588.023369	28.186000	-9.360000
	8.100463	1588.110703	28.820000	-8.170000
	8.200469	1588.114861	28.346000	-8.770000
	8.305475	1587.992939	28.206000	-9.680000
	8.400480	1588.156569	28.162000	-7.620000
	8.500486	1588.121925	28.116000	-9.050000
	8.600492	1588.121925	28.116000	-9.050000
	8.700498	1588.085895	28.026000	-9.060000
	8.800503	1587.993065	28.344000	-9.470000
	8.900509	1588.138656	26.430000	-7.750000
	9.000515	1588.040281	28.304000	-9.510000
	9.100520	1588.069386	28.468000	-8.590000
	9.200526	1588.015346	28.076000	-9.190000
	9.300532	1587.980705	28.298000	-9.050000
	9.400537	1587.925283	27.360000	-9.200000
	9.499543	1588.016771	27.878000	-8.140000
	9.599549	1588.485016	28.168000	-5.430000
	9.699554	1588.390777	28.188000	-9.480000
	9.801560	1588.375531	28.632000	-8.910000
	9.899566	1588.303467	28.160000	-9.320000
	9.999572	1588.288221	28.246000	-8.910000
	10.099577	1588.238330	28.366000	-9.160000
	10.199583	1588.517275	28.902000	-6.790000
	10.299589	1588.517275	28.902000	-6.790000
	10.399595	1588.696232	29.322000	-7.510000
	10.499600	1588.455107	31.222000	-10.540000
	10.599606	1588.463425	28.170000	-8.740000
	10.699612	1588.319310	28.302000	-9.840000
	10.799617	1588.438566	28.360000	-7.940000
	10.899623	1588.351257	28.460000	-9.430000
	10.999629	1588.501044	26.424000	-7.720000
	11.119636	1588.912265	28.372000	-5.840000
	11.199640	1589.587804	27.070000	-3.950000
	11.303646	1589.818307	28.304000	-7.140000
	11.399652	1590.014087	26.672000	-7.390000
	11.499658	1590.025188	27.232000	-8.720000
	11.599663	1590.159851	26.822000	-7.830000
	11.699669	1590.338992	26.372000	-7.510000
	11.799675	1590.015778	29.210000	-11.130000
	11.899681	1590.107386	26.198000	-8.140000
	11.999686	1590.178173	25.372000	-8.290000
	12.149695	1590.178173	25.372000	-8.290000
	12.249701	1590.212869	26.634000	-8.550000
	12.349706	1590.280884	25.940000	-8.310000
	12.449712	1590.312806	25.776000	-8.570000
	12.549717	1590.336401	25.886000	-8.630000
	12.649724	1590.194890	26.082000	-9.820000
	12.749729	1590.262904	25.010000	-8.310000
	12.849735	1590.167173	26.012000	-9.490000
	12.949740	1590.107512	25.474000	-9.230000
	12.999743	1590.024273	25.560000	-9.400000
	13.149752	1589.997912	25.576000	-8.990000
	13.249758	1589.977100	25.502000	-8.950000
	13.349763	1589.996526	25.460000	-8.660000
	13.449769	1589.982652	25.378000	-8.900000
	13.549775	1589.957678	25.362000	-8.980000
	13.599778	1589.959066	25.176000	-8.790000
	13.749786	1589.884156	25.226000	-9.340000
	13.849792	1589.852248	25.318000	-9.030000
	13.949798	1589.852248	25.318000	-9.030000
	14.049803	1589.785665	25.326000	-9.280000
	14.149809	1589.721858	25.346000	-9.260000
	14.249815	1589.655280	25.386000	-9.280000
	14.349821	1589.591479	25.384000	-9.260000
	14.449826	1589.660855	25.092000	-8.300000
	14.549832	1589.505540	25.240000	-9.920000
	14.649837	1589.339150	24.866000	-10.000000
	14.749844	1589.402965	25.362000	-8.340000
	14.849849	1589.328081	25.414000	-9.340000
	14.949855	1589.301731	25.472000	-8.990000
	15.049860	1589.229625	25.512000	-9.320000
	15.149866	1589.124252	25.502000	-9.560000
	15.251872	1589.043837	25.494000	-9.380000
	15.349878	1589.085444	25.710000	-8.500000
	15.449883	1589.072964	25.414000	-8.890000
	15.549889	1588.823467	25.438000	-10.600000
	15.649895	1588.756927	25.524000	-9.280000
	15.749901	1588.644656	24.550000	-9.610000
	15.849906	1588.644656	24.550000	-9.610000
	15.949912	1588.664066	25.042000	-8.660000
	16.049918	1588.610006	25.538000	-9.190000
	16.149923	1588.562878	25.540000	-9.140000
	16.249929	1588.615566	25.016000	-8.420000
	16.349935	1588.406320	25.598000	-10.310000
	16.449941	1588.385529	25.536000	-8.950000
	16.549946	1588.571413	25.812000	-7.460000
	16.649952	1588.520128	25.568000	-9.170000
	16.749958	1588.466072	25.580000	-9.190000
	16.849964	1588.412019	25.550000	-9.190000
	16.950969	1588.364896	25.536000	-9.140000
	17.049975	1588.326090	25.588000	-9.080000
	17.149981	1588.292827	25.568000	-9.040000
	17.249987	1588.270652	25.592000	-8.960000
	17.349992	1588.236005	25.560000	-9.050000
	17.449998	1588.216602	25.576000	-8.940000
	17.550004	1588.191656	25.600000	-8.980000
	17.650009	1588.170868	25.586000	-8.950000
	17.750015	1588.150080	25.590000	-8.950000
	17.900023	1588.141765	25.582000	-8.860000
	18.000029	1588.126521	25.594000	-8.910000
	18.100035	1588.100191	25.602000	-8.990000
	18.200041	1588.091875	25.624000	-8.860000
	18.300046	1588.073860	25.598000	-8.930000
	18.400052	1588.055845	25.590000	-8.930000
	18.500058	1588.039216	25.604000	-8.920000
	18.600064	1588.036444	25.612000	-8.820000
	18.750072	1588.029515	25.588000	-8.850000
	18.850078	1588.029515	25.588000	-8.850000
	18.950084	1588.015658	25.610000	-8.900000
	19.050089	1588.011500	25.598000	-8.830000
	19.150095	1588.008729	25.618000	-8.820000
	19.250101	1588.004571	25.604000	-8.830000
	19.350107	1587.992100	25.592000	-8.890000
	19.450112	1587.989328	25.618000	-8.820000
	19.550118	1588.026749	25.592000	-8.530000
	19.650124	1588.021206	25.612000	-8.840000
	19.750129	1588.018434	25.614000	-8.820000
	19.850135	1588.007348	25.596000	-8.880000
	19.950141	1587.993491	25.590000	-8.900000
	20.050147	1587.925600	25.546000	-9.290000
	20.150152	1587.929757	25.588000	-8.770000
	20.254158	1587.922829	25.546000	-8.850000
	20.350164	1587.920057	25.610000	-8.820000
	20.450170	1587.922829	25.608000	-8.780000
	20.550175	1587.922829	25.608000	-8.780000
	20.650181	1587.907587	25.594000	-8.910000
	20.750186	1587.899272	25.616000	-8.860000
	20.850193	1587.896501	25.632000	-8.820000
	20.950198	1587.896501	25.634000	-8.800000
	21.050204	1587.892344	25.620000	-8.830000
	21.150209	1587.890958	25.524000	-8.810000
	21.250215	1587.885416	25.666000	-8.840000
	21.350221	1587.852162	25.686000	-9.040000
	21.450227	1587.843849	25.520000	-8.860000
	21.550232	1587.878494	25.690000	-8.550000
	21.651238	1587.878494	25.618000	-8.800000
	21.750244	1587.868794	25.630000	-8.870000
	21.857250	1587.860481	25.636000	-8.860000
	21.950255	1587.841082	25.634000	-8.940000
	22.050261	1587.829998	25.600000	-8.880000
	22.150267	1587.832769	25.614000	-8.780000
	22.250272	1587.824455	25.618000	-8.860000
	22.350278	1587.824455	25.618000	-8.860000
	22.450284	1587.817527	25.618000	-8.850000
	22.550290	1587.813370	25.620000	-8.830000
	22.650295	1587.809213	25.618000	-8.830000
	22.750301	1587.809213	25.586000	-8.800000
	22.850307	1587.806442	25.622000	-8.820000
	22.950313	1587.802285	25.586000	-8.830000
	23.050318	1587.795357	25.644000	-8.850000
	23.150324	1587.792586	25.614000	-8.820000
	23.250329	1587.785658	25.624000	-8.850000
	23.350335	1587.784273	25.610000	-8.810000
	23.450341	1587.780116	25.620000	-8.830000
	23.557347	1587.774574	25.622000	-8.840000
	23.650352	1587.775959	25.606000	-8.790000
	23.750358	1587.777345	25.534000	-8.790000
	23.850364	1587.773188	25.592000	-8.830000
	23.950370	1587.769031	25.616000	-8.830000
	24.050375	1587.777345	25.636000	-8.740000
	24.150381	1587.784273	25.624000	-8.750000
	24.300390	1587.784273	25.624000	-8.750000
	24.400395	1587.755178	25.450000	-9.010000
	24.500401	1587.753793	25.614000	-8.810000
	24.600407	1587.749636	25.608000	-8.830000
	24.700413	1587.746865	25.580000	-8.820000
	24.800418	1587.756564	25.596000	-8.730000
	24.902424	1587.744094	25.664000	-8.890000
	25.000430	1587.746866	25.624000	-8.780000
	25.100435	1587.751022	25.648000	-8.770000
	25.200441	1587.745480	25.634000	-8.840000
	25.300447	1587.742709	25.652000	-8.820000
	25.400453	1588.018788	26.962000	-6.810000
	25.500458	1587.313121	27.196000	-13.890000
	25.601464	1587.392099	25.584000	-8.230000
	25.700469	1587.450292	25.620000	-8.380000
	25.800476	1587.494628	25.604000	-8.480000
	25.907482	1587.534809	25.622000	-8.510000
	26.000487	1587.563905	25.600000	-8.590000
	26.100492	1587.590230	25.598000	-8.610000
	26.200498	1587.601314	25.608000	-8.720000
	26.300504	1587.620711	25.602000	-8.660000
	26.450512	1587.631795	25.604000	-8.720000
	26.550519	1587.637337	25.604000	-8.760000
	26.650524	1587.645650	25.620000	-8.740000
	26.750530	1587.651192	25.622000	-8.760000
	26.900538	1587.653963	25.648000	-8.780000
	26.999544	1587.659505	25.612000	-8.760000
	27.099550	1587.655349	25.612000	-8.830000
	27.199555	1587.662277	25.626000	-8.750000
	27.349564	1587.669204	25.630000	-8.750000
	27.449570	1587.673361	25.622000	-8.770000
	27.549575	1587.677517	25.630000	-8.770000
	27.649581	1587.685831	25.626000	-8.740000
	27.749587	1587.691373	25.622000	-8.760000
	27.899596	1587.696915	25.626000	-8.760000
	27.999601	1587.689988	25.646000	-8.850000
	28.099607	1587.684446	25.618000	-8.840000
	28.199613	1587.673362	25.628000	-8.880000
	28.349621	1587.673362	25.646000	-8.800000
	28.449627	1587.666434	25.610000	-8.850000
	28.550633	1587.670591	25.618000	-8.770000
	28.649638	1587.673362	25.614000	-8.780000
	28.799647	1587.659508	25.600000	-8.900000
	28.899652	1587.659508	25.600000	-8.900000
	28.999659	1587.655351	25.630000	-8.830000
	29.099664	1587.662279	25.614000	-8.750000
	29.199670	1587.656737	25.614000	-8.840000
	29.299675	1587.653966	25.624000	-8.820000
	29.399681	1587.655351	25.624000	-8.790000
	29.505687	1587.648424	25.618000	-8.850000
	29.609694	1587.647039	25.636000	-8.810000
	29.707699	1587.645653	25.618000	-8.810000
	29.805705	1587.649810	25.616000	-8.770000
	29.899710	1587.648424	25.618000	-8.810000
	30.005716	1587.642882	25.610000	-8.840000
	30.099721	1587.642882	25.628000	-8.800000
	30.199727	1587.638726	25.636000	-8.830000
	30.299733	1587.637340	25.612000	-8.810000
	30.399738	1587.642882	25.606000	-8.760000
	30.499744	1587.640112	25.602000	-8.820000
	30.601750	1587.638726	25.618000	-8.810000
	30.699756	1587.640112	25.622000	-8.790000
	30.849764	1587.640112	25.626000	-8.800000
	30.949770	1587.638726	25.608000	-8.810000
	31.049776	1587.638726	25.608000	-8.810000
	31.149781	1587.635955	25.608000	-8.820000
	31.257788	1587.638726	25.626000	-8.780000
	31.349793	1587.635955	25.620000	-8.820000
	31.449799	1587.629028	25.624000	-8.850000
	31.549804	1587.624872	25.618000	-8.830000
	31.649810	1587.629028	25.616000	-8.770000
	31.751816	1587.629028	25.594000	-8.800000
	31.849822	1587.631799	25.652000	-8.780000
	31.955828	1587.626257	25.618000	-8.840000
	32.049833	1587.622101	25.630000	-8.830000
	32.149838	1587.617945	25.634000	-8.830000
	32.249844	1587.619330	25.616000	-8.790000
	32.349850	1587.615174	25.602000	-8.830000
	32.449856	1587.620716	25.600000	-8.760000
	32.549861	1587.616559	25.628000	-8.830000
	32.649867	1587.613788	25.592000	-8.820000
	32.799876	1587.605476	25.634000	-8.860000
	32.899881	1587.604090	25.600000	-8.810000
	32.999887	1587.609632	25.612000	-8.760000
	33.099893	1587.604091	25.606000	-8.840000
	33.199899	1587.608247	25.620000	-8.770000
	33.299904	1587.599935	25.628000	-8.860000
	33.399910	1587.594393	25.640000	-8.840000
	33.499916	1587.599935	25.612000	-8.760000
	33.649924	1587.605477	25.630000	-8.760000
	33.749930	1587.605477	25.630000	-8.760000
	33.849936	1587.605477	25.628000	-8.800000
	33.949942	1587.611018	25.618000	-8.760000
	34.049947	1587.608248	25.618000	-8.820000
	34.149953	1587.606862	25.606000	-8.810000
	34.249959	1587.604091	25.632000	-8.820000
	34.349965	1587.608248	25.620000	-8.770000
	34.449970	1587.604091	25.618000	-8.830000
	34.549976	1587.595779	25.610000	-8.860000
	34.649981	1587.599935	25.624000	-8.770000
	34.749987	1587.595779	25.644000	-8.830000
	34.849993	1587.594394	25.602000	-8.810000
	34.949999	1587.591623	25.624000	-8.820000
	35.050004	1587.590237	25.600000	-8.810000
	35.156011	1587.587466	25.636000	-8.820000
	35.250016	1587.583310	25.618000	-8.830000
	35.350022	1587.583310	25.618000	-8.830000
	35.450027	1587.584696	25.600000	-8.790000
	35.550033	1587.579154	25.640000	-8.840000
	35.650039	1587.576383	25.614000	-8.820000
	35.750044	1587.581925	25.624000	-8.760000
	35.850050	1587.581925	25.616000	-8.800000
	35.950056	1587.587467	25.596000	-8.760000
	36.050062	1587.577769	25.616000	-8.870000
	36.150067	1587.570842	25.628000	-8.850000
	36.250073	1587.572228	25.638000	-8.790000
	36.350079	1587.569457	25.628000	-8.820000
	36.450085	1587.574998	25.626000	-8.760000
	36.550090	1587.581926	25.620000	-8.750000
	36.650096	1587.574999	25.626000	-8.850000
	36.750102	1587.572228	25.616000	-8.820000
	36.855108	1587.568072	25.622000	-8.830000
	36.950113	1587.569457	25.608000	-8.790000
	37.050119	1587.570843	25.628000	-8.790000
	37.150125	1587.570843	25.628000	-8.790000
	37.250130	1587.568072	25.630000	-8.820000
	37.350136	1587.568072	25.612000	-8.800000
	37.450142	1587.577770	25.644000	-8.730000
	37.550148	1587.573614	25.622000	-8.830000
	37.650153	1587.574999	25.604000	-8.790000
	37.750159	1587.569458	25.620000	-8.840000
	37.850165	1587.572228	25.632000	-8.780000
	37.950171	1587.569458	25.610000	-8.820000
	38.050176	1587.570843	25.594000	-8.790000
	38.150182	1587.572228	25.618000	-8.790000
	38.250187	1587.572228	25.620000	-8.800000
	38.350194	1587.577770	25.626000	-8.760000
	38.450199	1587.572229	25.628000	-8.840000
	38.555205	1587.574999	25.624000	-8.780000
	38.650210	1587.580541	25.632000	-8.760000
	38.750216	1587.575000	25.620000	-8.840000
	38.850222	1587.568073	25.630000	-8.850000
	38.950228	1587.575000	25.628000	-8.750000
	39.050233	1587.570844	25.614000	-8.830000
	39.150239	1587.565302	25.620000	-8.840000
	39.250245	1587.563917	25.624000	-8.810000
	39.400253	1587.563917	25.632000	-8.800000
	39.500259	1587.556990	25.606000	-8.850000
	39.600265	1587.558375	25.620000	-8.790000
	39.700271	1587.558375	25.600000	-8.800000
	39.800276	1587.554219	25.634000	-8.830000
	39.900282	1587.552834	25.628000	-8.810000
	40.000288	1587.547292	25.632000	-8.840000
	40.100294	1587.545907	25.612000	-8.810000
	40.200299	1587.545907	25.612000	-8.810000
	40.300305	1587.547292	25.614000	-8.790000
	40.400311	1587.550063	25.594000	-8.780000
	40.500316	1587.543136	25.640000	-8.850000
	40.600322	1587.543136	25.602000	-8.800000
	40.700328	1587.543136	25.614000	-8.800000
	40.800333	1587.543136	25.628000	-8.800000
	40.900339	1587.541751	25.604000	-8.810000
	41.001345	1587.550063	25.594000	-8.740000
	41.100350	1587.550063	25.614000	-8.800000
	41.200356	1587.550063	25.606000	-8.800000
	41.300362	1587.551449	25.634000	-8.790000
	41.400368	1587.547293	25.628000	-8.830000
	41.500373	1587.544522	25.640000	-8.820000
	41.600379	1587.547293	25.604000	-8.780000
	41.700385	1587.541751	25.626000	-8.840000
	41.814392	1587.541751	25.644000	-8.800000
	41.950399	1587.529283	25.614000	-8.890000
	42.050405	1587.529283	25.614000	-8.890000
	42.150411	1587.532054	25.622000	-8.780000
	42.250416	1587.541752	25.638000	-8.730000
	42.350422	1587.537596	25.610000	-8.830000
	42.450428	1587.541752	25.610000	-8.770000
	42.550434	1587.548679	25.618000	-8.750000
	42.650439	1587.533440	25.626000	-8.910000
	42.750445	1587.536211	25.632000	-8.780000
	42.850451	1587.533440	25.614000	-8.820000
	42.950457	1587.527899	25.630000	-8.840000
	43.050462	1587.529284	25.616000	-8.790000
	43.150468	1587.523743	25.600000	-8.840000
	43.250473	1587.519587	25.616000	-8.830000
	43.352479	1587.519587	25.612000	-8.800000
	43.450485	1587.522358	25.600000	-8.780000
	43.550491	1587.522358	25.630000	-8.800000
	43.650496	1587.523743	25.606000	-8.790000
	43.750502	1587.522358	25.630000	-8.810000
	43.850508	1587.522358	25.630000	-8.810000
	43.950514	1587.520972	25.624000	-8.810000
	44.050519	1587.518202	25.600000	-8.820000
	44.150525	1587.525129	25.602000	-8.750000
	44.250531	1587.519587	25.628000	-8.840000
	44.350536	1587.516816	25.628000	-8.820000
	44.450542	1587.520973	25.600000	-8.770000
	44.549548	1587.523743	25.638000	-8.780000
	44.649554	1587.523743	25.590000	-8.800000
	44.749559	1587.527900	25.608000	-8.770000
	44.849565	1587.526514	25.604000	-8.810000
	44.949571	1587.525129	25.618000	-8.810000
	45.054577	1587.516817	25.604000	-8.860000
	45.149582	1587.520973	25.620000	-8.770000
	45.249588	1587.514046	25.626000	-8.850000
	45.349594	1587.519588	25.612000	-8.760000
	45.449599	1587.520973	25.624000	-8.790000
	45.549605	1587.520973	25.630000	-8.800000
	45.649611	1587.518202	25.634000	-8.820000
	45.749617	1587.509890	25.606000	-8.860000
	45.899625	1587.508505	25.624000	-8.810000
	45.999631	1587.504349	25.624000	-8.830000
	46.099637	1587.500193	25.618000	-8.830000
	46.199642	1587.505735	25.614000	-8.760000
	46.299648	1587.505735	25.616000	-8.800000
	46.399654	1587.505735	25.620000	-8.800000
	46.499660	1587.511276	25.622000	-8.760000
	46.599665	1587.508505	25.620000	-8.820000
	46.749674	1587.505735	25.618000	-8.820000
	46.849679	1587.505735	25.618000	-8.820000
	46.949685	1587.511276	25.638000	-8.760000
	47.049691	1587.512662	25.650000	-8.790000
	47.149697	1587.518203	25.628000	-8.760000
	47.249702	1587.520974	25.632000	-8.780000
	47.349708	1587.514047	25.616000	-8.850000
	47.449714	1587.518203	25.624000	-8.770000
	47.549719	1587.509891	25.642000	-8.860000
	47.649725	1587.507121	25.592000	-8.820000
	47.749731	1587.512662	25.626000	-8.760000
	47.849737	1587.509892	25.622000	-8.820000
	47.949742	1587.505735	25.620000	-8.830000
	48.049748	1587.508506	25.596000	-8.780000
	48.149754	1587.511277	25.634000	-8.780000
	48.251760	1587.511277	25.592000	-8.800000
	48.349765	1587.511277	25.612000	-8.800000
	48.449771	1587.501580	25.592000	-8.870000
	48.549777	1587.498809	25.614000	-8.820000
	48.649782	1587.498809	25.618000	-8.800000
	48.749788	1587.498809	25.618000	-8.800000
	48.849794	1587.498809	25.616000	-8.800000
	48.949800	1587.498809	25.606000	-8.800000
	49.049805	1587.500194	25.622000	-8.790000
	49.149811	1587.505736	25.630000	-8.760000
	49.249817	1587.512663	25.620000	-8.750000
	49.349823	1587.514048	25.612000	-8.790000
	49.449828	1587.516819	25.598000	-8.780000
	49.549834	1587.509892	25.622000	-8.850000
	49.649839	1587.497424	25.630000	-8.890000
	49.749846	1587.498810	25.618000	-8.790000
	49.849851	1587.507122	25.602000	-8.740000
	49.954857	1587.498810	25.622000	-8.860000
	50.049862	1587.497425	25.612000	-8.810000
	50.149868	1587.498810	25.608000	-8.790000
	50.249874	1587.496040	25.652000	-8.820000
	50.349880	1587.498810	25.618000	-8.780000
	50.449885	1587.494654	25.614000	-8.830000
	50.549891	1587.494654	25.614000	-8.830000
	50.649897	1587.498810	25.630000	-8.770000
	50.749903	1587.496040	25.604000	-8.820000
	50.849908	1587.497425	25.620000	-8.790000
	50.949914	1587.502967	25.324000	-8.760000
	51.049920	1587.623548	25.546000	-7.930000
	51.149925	1587.609694	25.658000	-8.900000
	51.249931	1587.637405	25.654000	-8.600000
	51.350937	1587.577840	25.224000	-9.230000
	51.449943	1587.562601	25.670000	-8.910000
	51.553948	1587.558445	25.738000	-8.830000
	51.649954	1587.540435	25.622000	-8.930000
	51.749960	1587.526582	25.624000	-8.900000
	51.849966	1587.523811	25.586000	-8.820000
	51.949971	1587.508573	25.622000	-8.910000
	52.049977	1587.508573	25.570000	-8.800000
	52.149982	1587.508573	25.520000	-8.800000
	52.249988	1587.720726	24.524000	-7.270000
	52.349994	1587.720726	24.524000	-7.270000
	52.450000	1587.691632	25.576000	-9.010000
	52.550005	1587.699945	25.536000	-8.740000
	52.650011	1587.874646	25.446000	-7.540000
	52.750017	1587.838622	25.642000	-9.060000
	52.850023	1587.805370	25.626000	-9.040000
	52.950028	1587.767962	25.586000	-9.070000
	53.050034	1587.731941	25.590000	-9.060000
	53.156040	1587.711158	25.564000	-8.950000
	53.250045	1587.497877	25.264000	-10.340000
	53.350051	1587.531130	25.934000	-8.560000
	53.450057	1587.605960	25.680000	-8.260000
	53.550063	1587.592106	25.522000	-8.900000
	53.650068	1587.600419	25.642000	-8.740000
	53.750074	1587.675253	25.556000	-8.260000
	53.850080	1587.661398	25.600000	-8.900000
	53.950086	1587.648929	25.592000	-8.890000
	54.100094	1587.647544	25.562000	-8.810000
	54.200100	1587.654471	25.506000	-8.750000
	54.300106	1587.680798	26.560000	-8.610000
	54.400111	1587.675256	25.564000	-8.840000
	54.500117	1587.387205	25.004000	-10.880000
	54.600123	1587.444012	25.624000	-8.390000
	54.700129	1587.482805	25.566000	-8.520000
	54.850137	1587.524371	25.570000	-8.500000
	54.950143	1587.550696	25.568000	-8.610000
	55.050148	1587.583949	25.534000	-8.560000
	55.150154	1587.665713	25.650000	-8.210000
	55.250160	1587.692040	25.552000	-8.610000
	55.350166	1587.708667	25.464000	-8.680000
	55.450171	1587.726680	25.558000	-8.670000
	55.550177	1587.726680	25.558000	-8.670000
	55.650183	1587.736379	25.542000	-8.730000
	55.750188	1587.751621	25.558000	-8.690000
	55.850194	1587.772406	25.540000	-8.650000
	55.950200	1587.747468	25.494000	-8.980000
	56.050206	1587.766867	25.544000	-8.660000
	56.150211	1587.787652	25.530000	-8.650000
	56.250217	1587.805666	25.564000	-8.670000
	56.350223	1587.820909	25.556000	-8.690000
	56.454229	1587.831994	25.540000	-8.720000
	56.550234	1587.831994	25.560000	-8.800000
	56.650240	1587.984507	25.454000	-7.700000
	56.750246	1588.077385	25.632000	-8.130000
	56.850251	1588.042743	25.144000	-9.050000
	56.950257	1588.024728	25.532000	-8.930000
	57.050263	1588.052447	25.618000	-8.600000
	57.150269	1588.042746	25.596000	-8.870000
	57.250274	1588.042746	25.596000	-8.870000
	57.350280	1588.024731	25.572000	-8.930000
	57.450286	1588.019188	25.488000	-8.840000
	57.550292	1588.015031	25.464000	-8.830000
	57.650297	1588.030275	25.552000	-8.690000
	57.750303	1588.020575	25.438000	-8.870000
	57.900311	1588.006717	25.518000	-8.900000
	58.000317	1587.987317	25.554000	-8.940000
	58.100323	1587.999790	25.460000	-8.710000
	58.200329	1587.997018	25.498000	-8.820000
	58.300334	1587.988704	25.466000	-8.860000
	58.400340	1587.988704	25.510000	-8.800000
	58.500346	1587.981775	25.520000	-8.850000
	58.600351	1587.973461	25.516000	-8.860000
	58.705358	1587.913883	25.450000	-9.230000
	58.800363	1587.930512	25.510000	-8.680000
	58.905369	1587.934669	25.504000	-8.770000
	59.000374	1587.940212	25.516000	-8.760000
	59.106380	1587.940212	25.516000	-8.760000
	59.201386	1587.942984	25.514000	-8.780000
	59.313392	1587.940212	25.506000	-8.820000
	59.400397	1587.945755	25.524000	-8.760000
	59.500403	1587.955456	25.548000	-8.730000
	59.600409	1587.955456	25.508000	-8.800000
	59.700414	1587.958228	25.542000	-8.780000
	59.800420	1587.959613	25.524000	-8.790000
	59.900426	1587.960999	25.516000	-8.790000
	60.000432	1587.956842	25.514000	-8.830000
	60.104437	1587.956842	25.556000	-8.800000
	60.215444	1587.962385	25.520000	-8.760000
	60.300449	1587.962385	25.520000	-8.760000
	60.400455	1587.862636	24.858000	-9.520000
	60.500460	1587.880651	25.504000	-8.670000
	60.600466	1587.955498	25.616000	-8.260000
	60.700471	1587.954112	25.510000	-8.810000
	60.800478	1587.872371	25.592000	-9.390000
	60.900483	1587.962470	25.554000	-8.150000
	61.000489	1588.030388	26.904000	-8.310000
	61.100494	1588.013759	25.520000	-8.920000
	61.200500	1587.997130	25.516000	-8.920000
	61.300506	1587.991587	25.506000	-8.840000
	61.400512	1588.002674	25.522000	-8.720000
	61.506518	1588.099714	25.232000	-8.100000
	61.600523	1588.199534	25.536000	-8.080000
	61.700529	1588.072065	25.184000	-9.720000
	61.800535	1588.069294	25.442000	-8.820000
	61.900540	1588.042965	25.568000	-8.990000
	61.999546	1588.042965	25.568000	-8.990000
	62.099552	1587.943211	25.354000	-9.520000
	62.199557	1587.988948	25.494000	-8.470000
	62.299563	1588.018052	25.452000	-8.590000
	62.399569	1588.065177	25.438000	-8.460000
	62.499575	1588.084580	25.486000	-8.660000
	62.599580	1588.088737	25.344000	-8.770000
	62.699586	1588.138637	25.618000	-8.440000
	62.799592	1588.152497	25.586000	-8.700000
	62.899598	1588.146953	25.512000	-8.840000
	63.007604	1588.185764	25.390000	-8.520000
	63.099609	1588.192694	25.346000	-8.750000
	63.199615	1588.196852	25.324000	-8.770000
	63.299620	1588.199624	25.410000	-8.780000
	63.399626	1588.192694	25.424000	-8.850000
	63.499632	1588.238438	25.414000	-8.470000
	63.599638	1588.235666	25.398000	-8.820000
	63.749646	1588.130359	25.566000	-9.560000
	63.849652	1588.155307	25.506000	-8.620000
	63.949657	1588.205209	25.326000	-8.440000
	64.049663	1588.216297	25.304000	-8.720000
	64.149669	1588.216297	25.304000	-8.720000
	64.249675	1588.167795	25.438000	-9.150000
	64.349680	1588.237109	25.348000	-8.300000
	64.449686	1588.241267	25.100000	-8.770000
	64.549692	1588.221864	25.286000	-8.940000
	64.649697	1588.228794	25.310000	-8.750000
	64.749703	1588.242654	25.348000	-8.700000
	64.849709	1588.249585	25.322000	-8.750000
	64.949715	1588.255129	25.336000	-8.760000
	65.049720	1588.117959	25.512000	-9.790000
	65.149726	1587.839524	24.882000	-10.810000
	65.249732	1588.196276	25.434000	-6.230000
	65.353738	1588.414076	25.572000	-7.230000
	65.449743	1588.390513	25.362000	-8.970000
	65.549749	1588.369722	25.370000	-8.950000
	65.649755	1588.346160	25.328000	-8.970000
	65.749761	1588.315669	25.398000	-9.020000
	65.849766	1588.315669	25.398000	-9.020000
	65.949772	1588.305967	25.338000	-8.870000
	66.049778	1588.304580	25.330000	-8.810000
	66.149783	1588.311511	25.286000	-8.750000
	66.249789	1588.296265	25.378000	-8.910000
	66.349795	1588.292107	25.370000	-8.830000
	66.449800	1588.276861	25.326000	-8.910000
	66.549806	1588.267159	25.378000	-8.870000
	66.649812	1588.261615	25.352000	-8.840000
	66.749818	1588.257457	25.358000	-8.830000
	66.849823	1588.249141	25.376000	-8.860000
	66.950829	1588.238054	25.368000	-8.880000
	67.049835	1588.233896	25.382000	-8.830000
	67.149840	1588.222808	25.426000	-8.880000
	67.249846	1588.214492	25.386000	-8.860000
	67.349852	1588.202019	25.402000	-8.890000
	67.449858	1588.203405	25.408000	-8.790000
	67.549863	1588.186774	25.418000	-8.920000
	67.649869	1588.167372	25.338000	-8.940000
	67.749875	1588.165986	25.418000	-8.810000
	67.899883	1588.147970	25.416000	-8.930000
	67.999889	1588.141040	25.454000	-8.850000
	68.099895	1588.149356	25.370000	-8.740000
	68.199901	1588.159058	25.386000	-8.730000
	68.299906	1588.174304	25.358000	-8.690000
	68.399912	1588.177076	25.364000	-8.780000
	68.499918	1588.150745	25.210000	-8.990000
	68.649926	1588.160447	25.270000	-8.730000
	68.749932	1588.185395	25.334000	-8.620000
	68.849938	1588.190939	25.388000	-8.760000
	68.949944	1588.190939	25.388000	-8.760000
	69.049949	1588.188167	25.370000	-8.820000
	69.153955	1588.357370	24.542000	-7.580000
	69.255961	1588.422531	25.666000	-8.330000
	69.349967	1588.389267	25.350000	-9.040000
	69.452972	1588.354617	25.398000	-9.050000
	69.549978	1588.331055	25.378000	-8.970000
	69.649983	1588.313037	25.372000	-8.930000
	69.749989	1588.293633	25.372000	-8.940000
	69.856995	1588.282545	25.340000	-8.880000
	69.950001	1588.272843	25.334000	-8.870000
	70.050006	1588.253440	25.354000	-8.940000
	70.158012	1588.254826	25.384000	-8.790000
	70.250018	1588.254826	25.356000	-8.800000
	70.350024	1588.239581	25.384000	-8.910000
	70.450029	1588.240967	25.358000	-8.790000
	70.550035	1588.239581	25.328000	-8.810000
	70.700044	1588.235423	25.370000	-8.830000
	70.800049	1588.231265	25.372000	-8.830000
	70.900055	1588.229879	25.380000	-8.810000
	71.000061	1588.222949	25.382000	-8.850000
	71.100066	1588.231265	25.348000	-8.740000
	71.250075	1588.227107	25.368000	-8.830000
	71.350080	1588.227107	25.368000	-8.830000
	71.450087	1588.225721	25.358000	-8.810000
	71.550092	1588.227107	25.392000	-8.790000
	71.650098	1588.221563	25.374000	-8.840000
	71.750103	1588.214633	25.356000	-8.850000
	71.850109	1588.211862	25.384000	-8.820000
	71.950115	1588.213248	25.358000	-8.790000
	72.057121	1588.207704	25.360000	-8.840000
	72.150126	1588.216020	25.382000	-8.740000
	72.250132	1588.210476	25.374000	-8.840000
	72.350138	1588.211862	25.382000	-8.790000
	72.450144	1588.210476	25.384000	-8.810000
	72.550149	1588.214634	25.374000	-8.770000
	72.700158	1588.210476	25.370000	-8.830000
	72.800164	1588.204932	25.360000	-8.840000
	72.904170	1588.204932	25.384000	-8.800000
	73.000175	1588.206318	25.356000	-8.790000
	73.150184	1588.207704	25.374000	-8.790000
	73.250189	1588.207704	25.408000	-8.800000
	73.351195	1588.214634	25.386000	-8.750000
	73.450201	1588.220178	25.364000	-8.760000
	73.600209	1588.213248	25.364000	-8.850000
	73.700215	1588.211862	25.388000	-8.810000
	73.801221	1588.200775	25.388000	-8.880000
	73.900227	1588.195231	25.368000	-8.840000
	74.050235	1588.193845	25.392000	-8.810000
	74.150241	1588.192459	25.356000	-8.810000
	74.250247	1588.195231	25.400000	-8.780000
	74.350252	1588.195231	25.368000	-8.800000
	74.450258	1588.192459	25.394000	-8.820000
	74.600266	1588.195231	25.384000	-8.780000
	74.700273	1588.193845	25.374000	-8.810000
	74.802278	1588.191073	25.378000	-8.820000
	74.900284	1588.191073	25.378000	-8.820000
	75.050292	1588.185530	25.362000	-8.840000
	75.150298	1588.189688	25.386000	-8.770000
	75.250304	1588.195232	25.366000	-8.760000
	75.350309	1588.193846	25.394000	-8.810000
	75.450315	1588.195232	25.346000	-8.790000
	75.550321	1588.193846	25.398000	-8.810000
	75.650327	1588.186916	25.388000	-8.850000
	75.752333	1588.184144	25.382000	-8.820000
	75.854339	1588.185530	25.386000	-8.790000
	75.950344	1588.185530	25.386000	-8.790000
	76.050350	1588.191074	25.384000	-8.760000
	76.150355	1588.186916	25.392000	-8.830000
	76.250361	1588.189688	25.368000	-8.780000
	76.350367	1588.189688	25.364000	-8.800000
	76.450373	1588.191074	25.388000	-8.790000
	76.550378	1588.186916	25.386000	-8.830000
	76.650384	1588.184144	25.378000	-8.820000
	76.752390	1588.184144	25.372000	-8.800000
	76.861396	1588.182758	25.392000	-8.810000
	76.950401	1588.181372	25.382000	-8.810000
	77.050407	1588.181372	25.382000	-8.810000
	77.150413	1588.181372	25.388000	-8.800000
	77.253418	1588.185530	25.388000	-8.770000
	77.401427	1588.185530	25.380000	-8.800000
	77.500432	1588.184144	25.380000	-8.810000
	77.601439	1588.196618	25.386000	-8.710000
	77.706444	1588.196618	25.402000	-8.800000
	77.800450	1588.193847	25.378000	-8.820000
	77.900455	1588.192461	25.382000	-8.810000
	78.001461	1588.198005	25.380000	-8.760000
	78.100467	1588.200777	25.370000	-8.780000
	78.205473	1588.203548	25.394000	-8.780000
	78.312479	1588.196619	25.364000	-8.850000
	78.400484	1588.196619	25.364000	-8.850000
	78.500490	1588.196619	25.400000	-8.800000
	78.604496	1588.198005	25.360000	-8.790000
	78.700501	1588.193847	25.378000	-8.830000
	78.800507	1588.200777	25.364000	-8.750000
	78.900513	1588.200777	25.394000	-8.800000
	79.002518	1588.196619	25.374000	-8.830000
	79.107524	1588.198005	25.382000	-8.790000
	79.201530	1588.186918	25.380000	-8.880000
	79.300536	1588.193848	25.398000	-8.750000
	79.402541	1588.199392	25.384000	-8.760000
	79.507547	1588.202163	25.372000	-8.780000
	79.599553	1588.196620	25.380000	-8.840000
	79.749561	1588.191076	25.374000	-8.840000
	79.849567	1588.192462	25.368000	-8.790000
	79.955573	1588.185532	25.358000	-8.850000
	80.100581	1588.189690	25.386000	-8.770000
	80.204587	1588.188304	25.394000	-8.810000
	80.299592	1588.191076	25.370000	-8.780000
	80.401598	1588.185532	25.384000	-8.840000
	80.499604	1588.184146	25.392000	-8.810000
	80.599610	1588.185532	25.384000	-8.790000
	80.749619	1588.182761	25.388000	-8.820000
	80.849624	1588.186918	25.398000	-8.770000
	80.949630	1588.188304	25.386000	-8.790000
	81.049635	1588.198006	25.382000	-8.730000
	81.199644	1588.198006	25.364000	-8.800000
	81.299650	1588.198006	25.380000	-8.800000
	81.399655	1588.200778	25.390000	-8.780000
	81.499661	1588.198006	25.394000	-8.820000
	81.599667	1588.193849	25.408000	-8.830000
	81.749676	1588.189691	25.378000	-8.830000
	81.851681	1588.192463	25.398000	-8.780000
	81.949687	1588.195235	25.400000	-8.780000
	82.050693	1588.186919	25.382000	-8.860000
	82.199701	1588.193849	25.390000	-8.750000
	82.299707	1588.193849	25.398000	-8.800000
	82.399713	1588.189691	25.396000	-8.830000
	82.499719	1588.184147	25.396000	-8.840000
	82.649727	1588.185533	25.388000	-8.790000
	82.749733	1588.185533	25.388000	-8.790000
	82.849739	1588.179990	25.422000	-8.840000
	82.949744	1588.186920	25.392000	-8.750000
	83.049750	1588.192464	25.400000	-8.760000
	83.149755	1588.189692	25.394000	-8.820000
	83.249762	1588.193850	25.382000	-8.770000
	83.349767	1588.195236	25.396000	-8.790000
	83.449773	1588.198007	25.378000	-8.780000
	83.549778	1588.198007	25.374000	-8.800000
	83.649784	1588.202165	25.392000	-8.770000
	83.749790	1588.203551	25.382000	-8.790000
	83.849796	1588.198008	25.390000	-8.840000
	83.954802	1588.206324	25.420000	-8.740000
	84.049807	1588.206324	25.378000	-8.800000
	84.149813	1588.202166	25.398000	-8.830000
	84.249819	1588.191078	25.386000	-8.880000
	84.349824	1588.188307	25.374000	-8.820000
	84.449830	1588.188307	25.374000	-8.820000
	84.549836	1588.189692	25.420000	-8.790000
	84.649841	1588.185535	25.390000	-8.830000
	84.749847	1588.188307	25.392000	-8.780000
	84.849853	1588.185535	25.384000	-8.820000
	84.949859	1588.186921	25.396000	-8.790000
	85.049864	1588.192465	25.392000	-8.760000
	85.149870	1588.182763	25.428000	-8.870000
	85.249876	1588.182763	25.396000	-8.800000
	85.349882	1588.179991	25.406000	-8.820000
	85.449887	1588.177219	25.388000	-8.820000
	85.555893	1588.170290	25.406000	-8.850000
	85.649899	1588.173062	25.390000	-8.780000
	85.749905	1588.173062	25.408000	-8.800000
	85.849910	1588.175834	25.392000	-8.780000
	85.949916	1588.177220	25.372000	-8.790000
	86.049922	1588.175834	25.384000	-8.810000
	86.149927	1588.167518	25.396000	-8.860000
	86.249933	1588.164746	25.392000	-8.820000
	86.349939	1588.164746	25.392000	-8.820000
	86.449944	1588.170290	25.396000	-8.760000
	86.549950	1588.168904	25.368000	-8.810000
	86.649956	1588.179992	25.388000	-8.710000
	86.799964	1588.184150	25.404000	-8.770000
	86.899970	1588.175835	25.396000	-8.860000
	86.999976	1588.175835	25.394000	-8.800000
	87.099982	1588.184151	25.384000	-8.740000
	87.199987	1588.179993	25.390000	-8.830000
	87.349996	1588.173063	25.376000	-8.850000
	87.450002	1588.181379	25.392000	-8.740000
	87.550007	1588.179993	25.382000	-8.810000
	87.650013	1588.179993	25.422000	-8.800000
	87.750019	1588.177221	25.400000	-8.820000
	87.850025	1588.173063	25.392000	-8.830000
	88.000033	1588.170292	25.396000	-8.820000
	88.100039	1588.161976	25.392000	-8.860000
	88.200045	1588.167520	25.370000	-8.760000
	88.300050	1588.167520	25.370000	-8.760000
	88.400056	1588.171678	25.406000	-8.770000
	88.500062	1588.168906	25.400000	-8.820000
	88.600068	1588.170292	25.404000	-8.790000
	88.700073	1588.166134	25.394000	-8.830000
	88.800079	1588.167520	25.410000	-8.790000
	88.900084	1588.174450	25.398000	-8.750000
	89.000090	1588.178608	25.400000	-8.770000
	89.100096	1588.175836	25.372000	-8.820000
	89.200102	1588.166135	25.390000	-8.870000
	89.300107	1588.166135	25.404000	-8.800000
	89.400113	1588.167521	25.398000	-8.790000
	89.500119	1588.164749	25.392000	-8.820000
	89.604125	1588.170293	25.408000	-8.760000
	89.700130	1588.171679	25.414000	-8.790000
	89.800136	1588.171679	25.406000	-8.800000
	89.900142	1588.170293	25.404000	-8.810000
	90.000147	1588.171679	25.402000	-8.790000
	90.100153	1588.175836	25.400000	-8.770000
	90.200159	1588.175836	25.406000	-8.800000
	90.300165	1588.170293	25.404000	-8.840000
	90.450173	1588.173065	25.428000	-8.780000
	90.550179	1588.168907	25.406000	-8.830000
	90.650185	1588.170293	25.408000	-8.790000
	90.750190	1588.166135	25.398000	-8.830000
	90.853196	1588.168907	25.408000	-8.780000
	90.950202	1588.164749	25.408000	-8.830000
	91.050208	1588.166135	25.412000	-8.790000
	91.150213	1588.163363	25.408000	-8.820000
	91.250219	1588.164749	25.414000	-8.790000
	91.400228	1588.164749	25.414000	-8.790000
	91.500233	1588.163363	25.408000	-8.810000
	91.600239	1588.167521	25.394000	-8.770000
	91.700245	1588.160592	25.416000	-8.850000
	91.800251	1588.160592	25.400000	-8.800000
	91.900256	1588.163363	25.404000	-8.780000
	92.000262	1588.163363	25.402000	-8.800000
	92.100267	1588.163363	25.412000	-8.800000
	92.200274	1588.164749	25.402000	-8.790000
	92.300279	1588.170293	25.414000	-8.760000
	92.400285	1588.168907	25.404000	-8.810000
	92.500290	1588.173065	25.418000	-8.770000
	92.600296	1588.170293	25.390000	-8.820000
	92.700302	1588.166136	25.406000	-8.830000
	92.800308	1588.166136	25.406000	-8.800000
	92.850310	1588.166136	25.408000	-8.800000
	93.000319	1588.166136	25.408000	-8.800000
	93.100325	1588.167521	25.436000	-8.790000
	93.200331	1588.166136	25.414000	-8.810000
	93.300336	1588.167522	25.388000	-8.790000
	93.400342	1588.168907	25.398000	-8.790000
	93.500348	1588.166136	25.404000	-8.820000
	93.600353	1588.167522	25.406000	-8.790000
	93.700359	1588.164750	25.394000	-8.820000
	93.800365	1588.170294	25.408000	-8.760000
	93.900371	1588.166136	25.418000	-8.830000
	94.000376	1588.168908	25.398000	-8.780000
	94.100382	1588.161978	25.420000	-8.850000
	94.200387	1588.168908	25.384000	-8.750000
	94.300394	1588.170294	25.406000	-8.790000
	94.400399	1588.171680	25.404000	-8.790000
	94.504405	1588.173066	25.412000	-8.790000
	94.600410	1588.173066	25.412000	-8.800000
	94.700416	1588.173066	25.412000	-8.800000
	94.800422	1588.163364	25.406000	-8.870000
	94.900428	1588.167522	25.390000	-8.770000
	95.000433	1588.167522	25.398000	-8.800000
	95.100439	1588.163365	25.394000	-8.830000
	95.200445	1588.163365	25.410000	-8.800000
	95.300451	1588.170294	25.432000	-8.750000
	95.400456	1588.177224	25.404000	-8.750000
	95.500462	1588.177224	25.410000	-8.800000
	95.600468	1588.175838	25.404000	-8.810000
	95.700473	1588.177224	25.394000	-8.790000
	95.800479	1588.173066	25.404000	-8.830000
	95.900485	1588.166137	25.410000	-8.850000
	96.000491	1588.167523	25.402000	-8.790000
	96.100496	1588.164751	25.394000	-8.820000
	96.206502	1588.163365	25.418000	-8.810000
	96.300508	1588.160593	25.418000	-8.820000
	96.400514	1588.156435	25.420000	-8.830000
	96.500519	1588.156435	25.420000	-8.830000
	96.600525	1588.157821	25.410000	-8.790000
	96.700531	1588.148120	25.410000	-8.870000
	96.800537	1588.146734	25.420000	-8.810000
	96.900542	1588.143962	25.414000	-8.820000
	96.999548	1588.148120	25.402000	-8.770000
	97.099554	1588.143963	25.424000	-8.830000
	97.199559	1588.142577	25.410000	-8.810000
	97.299565	1588.143963	25.402000	-8.790000
	97.399571	1588.135647	25.406000	-8.860000
	97.499577	1588.134261	25.386000	-8.810000
	97.599582	1588.135647	25.416000	-8.790000
	97.699588	1588.143963	25.414000	-8.740000
	97.803594	1588.145349	25.378000	-8.790000
	97.899599	1588.152279	25.418000	-8.750000
	97.999605	1588.155051	25.420000	-8.780000
	98.099611	1588.159208	25.418000	-8.770000
	98.199616	1588.159208	25.418000	-8.770000
	98.299622	1588.166138	25.420000	-8.750000
	98.399628	1588.168910	25.414000	-8.780000
	98.499634	1588.167524	25.394000	-8.810000
	98.599639	1588.167524	25.414000	-8.800000
	98.699645	1588.160595	25.428000	-8.850000
	98.799651	1588.160595	25.382000	-8.800000
	98.899656	1588.161981	25.420000	-8.790000
	98.999662	1588.153665	25.410000	-8.860000
	99.099668	1588.153665	25.420000	-8.800000
	99.199674	1588.159209	25.404000	-8.760000
	99.299679	1588.161981	25.420000	-8.780000
	99.400685	1588.164753	25.412000	-8.780000
	99.499691	1588.166139	25.418000	-8.790000
	99.599697	1588.161981	25.446000	-8.830000
	99.699702	1588.163367	25.398000	-8.790000
	99.799708	1588.163367	25.410000	-8.800000
	99.899714	1588.161981	25.406000	-8.810000
	99.999720	1588.155051	25.432000	-8.850000
	100.099725	1588.153665	25.390000	-8.810000
	100.199731	1588.159209	25.438000	-8.760000
	100.349740	1588.168911	25.392000	-8.730000
	100.449745	1588.168911	25.410000	-8.800000
	100.549751	1588.160596	25.400000	-8.860000
	100.649756	1588.157824	25.416000	-8.820000
	100.749763	1588.156438	25.420000	-8.810000
	100.849768	1588.156438	25.398000	-8.800000
	100.949774	1588.155052	25.428000	-8.810000
	101.099782	1588.152280	25.430000	-8.820000
	101.199788	1588.150894	25.420000	-8.810000
	101.299794	1588.149508	25.406000	-8.810000
	101.399799	1588.148122	25.416000	-8.810000
	101.499805	1588.153666	25.406000	-8.760000
	101.599811	1588.153666	25.406000	-8.760000
	101.699817	1588.161982	25.434000	-8.740000
	101.799822	1588.168912	25.442000	-8.750000
	101.899828	1588.168912	25.436000	-8.800000
	101.999834	1588.163368	25.414000	-8.840000
	102.099840	1588.159210	25.408000	-8.830000
	102.199845	1588.157824	25.418000	-8.810000
	102.299851	1588.159210	25.414000	-8.790000
	102.399857	1588.153667	25.422000	-8.840000
	102.499862	1588.156439	25.434000	-8.780000
	102.601868	1588.153667	25.416000	-8.820000
	102.699874	1588.149509	25.402000	-8.830000
	102.799880	1588.146737	25.422000	-8.820000
	102.899885	1588.149509	25.438000	-8.780000
	102.999891	1588.149509	25.416000	-8.800000
	103.099897	1588.155053	25.424000	-8.760000
	103.199903	1588.155053	25.424000	-8.760000
	103.299908	1588.157825	25.398000	-8.780000
	103.399914	1588.156439	25.430000	-8.810000
	103.499919	1588.156439	25.420000	-8.800000
	103.599926	1588.156439	25.406000	-8.800000
	103.699931	1588.155053	25.442000	-8.810000
	103.799937	1588.156439	25.410000	-8.790000
	103.899942	1588.159211	25.436000	-8.780000
	103.999948	1588.163369	25.424000	-8.770000
	104.099954	1588.166140	25.412000	-8.780000
	104.199960	1588.163369	25.440000	-8.820000
	104.300965	1588.167527	25.416000	-8.770000
	104.399971	1588.163369	25.398000	-8.830000
	104.499977	1588.161983	25.416000	-8.810000
	104.599983	1588.157825	25.400000	-8.830000
	104.699988	1588.153667	25.424000	-8.830000
	104.799994	1588.156439	25.422000	-8.780000
	104.900000	1588.159211	25.418000	-8.780000
	105.000005	1588.159211	25.418000	-8.780000
	105.100011	1588.161983	25.436000	-8.780000
	105.200017	1588.161983	25.386000	-8.800000
	105.300023	1588.159211	25.414000	-8.820000
	105.400028	1588.161983	25.404000	-8.780000
	105.500034	1588.155054	25.414000	-8.850000
	105.600039	1588.155054	25.398000	-8.800000
	105.700046	1588.155054	25.418000	-8.800000
	105.800051	1588.159211	25.422000	-8.770000
	105.902057	1588.153668	25.418000	-8.840000
	106.000062	1588.153668	25.408000	-8.800000
	106.100068	1588.155054	25.388000	-8.790000
	106.200074	1588.153668	25.404000	-8.810000
	106.300080	1588.156440	25.422000	-8.780000
	106.400085	1588.148124	25.428000	-8.860000
	106.500091	1588.146738	25.424000	-8.810000
	106.600097	1588.139809	25.408000	-8.850000
	106.700103	1588.138423	25.398000	-8.810000
	106.850111	1588.135651	25.420000	-8.820000
	106.950117	1588.138423	25.416000	-8.780000
	107.050123	1588.141195	25.408000	-8.780000
	107.150128	1588.139809	25.408000	-8.810000
	107.250134	1588.138423	25.414000	-8.810000
	107.350140	1588.145353	25.376000	-8.750000
	107.450146	1588.148125	25.432000	-8.780000
	107.600154	1588.143967	25.430000	-8.830000
	107.700160	1588.141195	25.438000	-8.820000
	107.800166	1588.138423	25.414000	-8.820000
	107.905171	1588.137037	25.416000	-8.810000
	108.000177	1588.142581	25.432000	-8.760000
	108.100183	1588.143967	25.414000	-8.790000
	108.250191	1588.145353	25.412000	-8.790000
	108.350197	1588.149511	25.432000	-8.770000
	108.452203	1588.152283	25.406000	-8.780000
	108.550209	1588.152283	25.406000	-8.780000
	108.650214	1588.148125	25.434000	-8.830000
	108.750220	1588.177232	25.468000	-8.590000
	108.850225	1588.166145	25.432000	-8.880000
	108.950231	1588.160601	25.420000	-8.840000
	109.050237	1588.152286	25.418000	-8.860000
	109.150243	1588.150900	25.434000	-8.810000
	109.259249	1588.146742	25.432000	-8.830000
	109.350254	1588.148128	25.394000	-8.790000
	109.456260	1588.150900	25.428000	-8.780000
	109.550266	1588.150900	25.418000	-8.800000
	109.650271	1588.149514	25.424000	-8.810000
	109.750277	1588.153672	25.416000	-8.770000
	109.850283	1588.152286	25.418000	-8.810000
	109.950288	1588.153672	25.410000	-8.790000
	110.050294	1588.159216	25.416000	-8.760000
	110.150300	1588.157830	25.428000	-8.810000
	110.300309	1588.150900	25.406000	-8.850000
	110.400314	1588.148128	25.430000	-8.820000
	110.500320	1588.153672	25.418000	-8.760000
	110.600326	1588.166146	25.404000	-8.710000
	110.700331	1588.161988	25.410000	-8.830000
	110.800337	1588.163374	25.416000	-8.790000
	110.900343	1588.167532	25.400000	-8.770000
	111.000349	1588.167532	25.400000	-8.770000
	111.100354	1588.164760	25.400000	-8.820000
	111.200360	1588.159217	25.404000	-8.840000
	111.300366	1588.161989	25.398000	-8.780000
	111.400372	1588.159217	25.408000	-8.820000
	111.500377	1588.159217	25.428000	-8.800000
	111.600383	1588.152287	25.400000	-8.850000
	111.700388	1588.159217	25.412000	-8.750000
	111.801394	1588.153673	25.426000	-8.840000
	111.908401	1588.153673	25.424000	-8.800000
	112.000406	1588.148130	25.428000	-8.840000
	112.100411	1588.148130	25.402000	-8.800000
	112.200417	1588.145358	25.452000	-8.820000
	112.300423	1588.145358	25.416000	-8.800000
	112.400429	1588.145358	25.414000	-8.800000
	112.501434	1588.145358	25.410000	-8.800000
	112.600440	1588.137043	25.406000	-8.860000
	112.750449	1588.131499	25.426000	-8.840000
	112.850454	1588.131499	25.426000	-8.840000
	112.950460	1588.128727	25.436000	-8.820000
	113.050466	1588.134271	25.394000	-8.760000
	113.150472	1588.135657	25.416000	-8.790000
	113.250477	1588.138429	25.424000	-8.780000
	113.350483	1588.143973	25.442000	-8.760000
	113.450489	1588.143973	25.422000	-8.800000
	113.550495	1588.141201	25.414000	-8.820000
	113.650500	1588.139815	25.412000	-8.810000
	113.750506	1588.135657	25.418000	-8.830000
	113.850512	1588.141201	25.432000	-8.760000
	113.950517	1588.135657	25.412000	-8.840000
	114.050523	1588.143973	25.396000	-8.740000
	114.150529	1588.142587	25.416000	-8.810000
	114.256535	1588.145359	25.420000	-8.780000
	114.350540	1588.148131	25.426000	-8.780000
	114.449546	1588.149517	25.414000	-8.790000
	114.549551	1588.143973	25.406000	-8.840000
	114.649557	1588.148131	25.402000	-8.770000
	114.749563	1588.148131	25.402000	-8.770000
	114.849569	1588.148131	25.396000	-8.800000
	114.949574	1588.149517	25.408000	-8.790000
	115.049580	1588.145359	25.420000	-8.830000
	115.149586	1588.146745	25.432000	-8.790000
	115.249592	1588.145359	25.400000	-8.810000
	115.349597	1588.146745	25.414000	-8.790000
	115.449603	1588.146745	25.410000	-8.800000
	115.549609	1588.137044	25.408000	-8.870000
	115.649614	1588.141202	25.426000	-8.770000
	115.749620	1588.134272	25.414000	-8.850000
	115.851626	1588.135658	25.410000	-8.790000
	115.949632	1588.138430	25.430000	-8.780000
	116.049637	1588.135658	25.408000	-8.820000
	116.149643	1588.131501	25.412000	-8.830000
	116.249649	1588.134272	25.416000	-8.780000
	116.349655	1588.130115	25.434000	-8.830000
	116.449660	1588.130115	25.434000	-8.830000
	116.549666	1588.139816	25.428000	-8.730000
	116.649672	1588.137045	25.418000	-8.820000
	116.749678	1588.141202	25.414000	-8.770000
	116.849683	1588.137045	25.428000	-8.830000
	116.949689	1588.138431	25.432000	-8.790000
	117.049695	1588.142588	25.414000	-8.770000
	117.149700	1588.143974	25.430000	-8.790000
	117.249706	1588.148132	25.406000	-8.770000
	117.349712	1588.142588	25.400000	-8.840000
	117.449718	1588.141203	25.418000	-8.810000
	117.552723	1588.139817	25.416000	-8.810000
	117.649729	1588.137045	25.420000	-8.820000
	117.749735	1588.134273	25.418000	-8.820000
	117.849741	1588.123186	25.454000	-8.880000
	117.949746	1588.123186	25.418000	-8.800000
	118.049752	1588.125958	25.406000	-8.780000
	118.149757	1588.132888	25.416000	-8.750000
	118.249763	1588.132888	25.406000	-8.800000
	118.399772	1588.128730	25.408000	-8.830000
	118.499778	1588.124572	25.424000	-8.830000
	118.599783	1588.123186	25.428000	-8.810000
	118.699789	1588.127344	25.442000	-8.770000
	118.799795	1588.127344	25.418000	-8.800000
	118.899800	1588.125958	25.424000	-8.810000
	118.999806	1588.121801	25.406000	-8.830000
	119.099812	1588.125958	25.424000	-8.770000
	119.199818	1588.125958	25.424000	-8.770000
	119.299823	1588.124573	25.410000	-8.810000
	119.399829	1588.128730	25.412000	-8.770000
	119.499835	1588.134274	25.414000	-8.760000
	119.599841	1588.137046	25.410000	-8.780000
	119.699846	1588.132888	25.420000	-8.830000
	119.799852	1588.138432	25.408000	-8.760000
	119.899858	1588.145362	25.434000	-8.750000
	120.000864	1588.137046	25.452000	-8.860000
	120.099869	1588.135660	25.416000	-8.810000
	120.199875	1588.135660	25.414000	-8.800000
	120.299881	1588.139818	25.418000	-8.770000
	120.399886	1588.137046	25.420000	-8.820000
	120.499892	1588.134275	25.432000	-8.820000
	120.599898	1588.135660	25.434000	-8.790000
	120.699903	1588.137046	25.430000	-8.790000
	120.799909	1588.137046	25.430000	-8.790000
	120.899915	1588.128731	25.432000	-8.860000
	120.999921	1588.128731	25.420000	-8.800000
	121.099926	1588.127345	25.426000	-8.810000
	121.199932	1588.130117	25.416000	-8.780000
	121.299938	1588.127345	25.420000	-8.820000
	121.399943	1588.125959	25.432000	-8.810000
	121.499949	1588.130117	25.438000	-8.770000
	121.599955	1588.130117	25.418000	-8.800000
	121.702961	1588.135661	25.412000	-8.760000
	121.799966	1588.130117	25.426000	-8.840000
	121.899972	1588.134275	25.414000	-8.770000
	121.999978	1588.131503	25.410000	-8.820000
	122.099984	1588.131503	25.424000	-8.800000
	122.199989	1588.130117	25.440000	-8.810000
	122.299995	1588.137047	25.410000	-8.750000
	122.400001	1588.134275	25.422000	-8.820000
	122.550009	1588.135661	25.434000	-8.790000
	122.650015	1588.139819	25.434000	-8.770000
	122.750021	1588.137047	25.422000	-8.820000
	122.850027	1588.137047	25.422000	-8.820000
	122.950032	1588.137047	25.416000	-8.800000
	123.050038	1588.134275	25.414000	-8.820000
	123.150043	1588.145363	25.442000	-8.720000
	123.250049	1588.137048	25.414000	-8.860000
	123.350055	1588.135662	25.420000	-8.810000
	123.450061	1588.142592	25.420000	-8.750000
	123.550066	1588.148135	25.412000	-8.760000
	123.650072	1588.141206	25.442000	-8.850000
	123.750078	1588.139820	25.426000	-8.810000
	123.850084	1588.141206	25.394000	-8.790000
	123.950089	1588.135662	25.420000	-8.840000
	124.050095	1588.138434	25.422000	-8.780000
	124.152101	1588.143978	25.410000	-8.760000
	124.250106	1588.142592	25.416000	-8.810000
	124.350112	1588.148136	25.434000	-8.760000
	124.450118	1588.145364	25.402000	-8.820000
	124.550124	1588.145364	25.402000	-8.820000
	124.650129	1588.141206	25.414000	-8.830000
	124.750135	1588.138434	25.438000	-8.820000
	124.850141	1588.137049	25.436000	-8.810000
	124.950147	1588.139820	25.422000	-8.780000
	125.050152	1588.141206	25.412000	-8.790000
	125.150158	1588.159224	25.392000	-8.670000
	125.250164	1588.159224	25.404000	-8.800000
	125.350169	1588.156452	25.418000	-8.820000
	125.450175	1588.156452	25.430000	-8.800000
	125.550181	1588.159224	25.404000	-8.780000
	125.650187	1588.159224	25.422000	-8.800000
	125.752192	1588.153681	25.406000	-8.840000
	125.850198	1588.155067	25.406000	-8.790000
	125.950204	1588.156453	25.396000	-8.790000
	126.050210	1588.152295	25.428000	-8.830000
	126.150215	1588.148137	25.452000	-8.830000
	126.250221	1588.150909	25.432000	-8.780000
	126.350226	1588.142594	25.400000	-8.860000
	126.450233	1588.142594	25.408000	-8.800000
	126.550238	1588.143980	25.404000	-8.790000
	126.700247	1588.145365	25.408000	-8.790000
	126.800252	1588.137050	25.406000	-8.860000
	126.900258	1588.130121	25.390000	-8.850000
	127.000264	1588.131507	25.424000	-8.790000
	127.100269	1588.131507	25.418000	-8.800000
	127.200275	1588.128735	25.428000	-8.820000
	127.300281	1588.128735	25.428000	-8.820000
	127.400287	1588.134279	25.420000	-8.760000
	127.500292	1588.128735	25.390000	-8.840000
	127.600298	1588.125963	25.410000	-8.820000
	127.700304	1588.131507	25.450000	-8.760000
	127.800310	1588.130121	25.412000	-8.810000
	127.900315	1588.130121	25.420000	-8.800000
	128.000321	1588.134279	25.412000	-8.770000
	128.100327	1588.134279	25.422000	-8.800000
	128.206333	1588.132893	25.388000	-8.810000
	128.300338	1588.138437	25.424000	-8.760000
	128.400344	1588.135665	25.412000	-8.820000
	128.500350	1588.143981	25.426000	-8.740000
	128.600355	1588.142595	25.424000	-8.810000
	128.700361	1588.142595	25.428000	-8.800000
	128.800367	1588.137051	25.424000	-8.840000
	128.900373	1588.145367	25.402000	-8.740000
	129.050381	1588.145367	25.402000	-8.740000
	129.150387	1588.142595	25.396000	-8.820000
	129.250392	1588.148139	25.426000	-8.760000
	129.350398	1588.143981	25.436000	-8.830000
	129.450404	1588.138437	25.416000	-8.840000
	129.550410	1588.137051	25.426000	-8.810000
	129.650415	1588.131508	25.432000	-8.840000
	129.750421	1588.134280	25.432000	-8.780000
	129.850427	1588.132894	25.416000	-8.810000
	129.950432	1588.130122	25.444000	-8.820000
	130.050438	1588.137052	25.434000	-8.750000
	130.150444	1588.141210	25.418000	-8.770000
	130.250450	1588.146753	25.410000	-8.760000
	130.350455	1588.145367	25.414000	-8.810000
	130.450461	1588.142596	25.432000	-8.820000
	130.550467	1588.142596	25.422000	-8.800000
	130.600470	1588.141210	25.412000	-8.810000
	130.750478	1588.139824	25.438000	-8.810000
	130.850484	1588.139824	25.424000	-8.800000
	130.950490	1588.139824	25.418000	-8.800000
	131.050496	1588.146753	25.432000	-8.750000
	131.150501	1588.257673	25.380000	-8.000000
	131.250507	1588.292327	25.206000	-8.550000
	131.350513	1588.292327	25.206000	-8.550000
	131.450518	1588.315892	25.236000	-8.630000
	131.550524	1588.328367	25.240000	-8.710000
	131.650530	1588.338070	25.244000	-8.730000
	131.750535	1588.346387	25.254000	-8.740000
	131.850541	1588.353317	25.268000	-8.750000
	131.949547	1588.356090	25.256000	-8.780000
	132.053553	1588.371337	25.264000	-8.690000
	132.149559	1588.369951	25.262000	-8.810000
	132.249564	1588.378268	25.248000	-8.740000
	132.349570	1588.385199	25.268000	-8.750000
	132.449575	1588.386585	25.236000	-8.790000
	132.549581	1588.378269	25.250000	-8.860000
	132.649587	1588.375496	25.266000	-8.820000
	132.749593	1588.372724	25.256000	-8.820000
	132.849598	1588.374110	25.256000	-8.790000
	132.999607	1588.372724	25.264000	-8.810000
	133.099613	1588.368566	25.266000	-8.830000
	133.199618	1588.368566	25.260000	-8.800000
	133.299624	1588.368566	25.260000	-8.800000
	133.399630	1588.368566	25.248000	-8.800000
	133.499636	1588.378269	25.264000	-8.730000
	133.599641	1588.383813	25.250000	-8.760000
	133.699647	1588.389358	25.244000	-8.760000
	133.799653	1588.392130	25.280000	-8.780000
	133.899658	1588.386586	25.254000	-8.840000
	133.999664	1588.390744	25.272000	-8.770000
	134.099670	1588.393517	25.246000	-8.780000
	134.199676	1588.397675	25.242000	-8.770000
	134.299681	1588.394903	25.268000	-8.820000
	134.399687	1588.385200	25.274000	-8.870000
	134.505693	1588.386586	25.272000	-8.790000
	134.599699	1588.378270	25.254000	-8.860000
	134.699704	1588.376884	25.260000	-8.810000
	134.799710	1588.378270	25.254000	-8.790000
	134.899715	1588.376884	25.280000	-8.810000
	134.999722	1588.374111	25.250000	-8.820000
	135.099727	1588.375498	25.266000	-8.790000
	135.199733	1588.375498	25.266000	-8.790000
	135.299738	1588.374111	25.244000	-8.810000
	135.399744	1588.369953	25.262000	-8.830000
	135.499750	1588.364409	25.276000	-8.840000
	135.599756	1588.365795	25.238000	-8.790000
	135.699761	1588.365795	25.282000	-8.800000
	135.799767	1588.376884	25.256000	-8.720000
	135.899773	1588.368568	25.246000	-8.860000
	135.999779	1588.364409	25.258000	-8.830000
	136.105784	1588.361637	25.242000	-8.820000
	136.199790	1588.363023	25.250000	-8.790000
	136.299796	1588.365796	25.258000	-8.780000
	136.399801	1588.365796	25.244000	-8.800000
	136.499807	1588.364409	25.270000	-8.810000
	136.599813	1588.360251	25.256000	-8.830000
	136.699819	1588.353321	25.258000	-8.850000
	136.799824	1588.354707	25.270000	-8.790000
	136.949833	1588.354707	25.270000	-8.790000
	137.049839	1588.356093	25.254000	-8.790000
	137.149844	1588.353321	25.228000	-8.820000
	137.249850	1588.353321	25.278000	-8.800000
	137.349856	1588.353321	25.280000	-8.800000
	137.449862	1588.354707	25.248000	-8.790000
	137.549867	1588.356093	25.256000	-8.790000
	137.649873	1588.356093	25.268000	-8.800000
	137.749878	1588.361638	25.264000	-8.760000
	137.849885	1588.364410	25.276000	-8.780000
	137.949890	1588.367182	25.272000	-8.780000
	138.049896	1588.371340	25.256000	-8.770000
	138.149901	1588.368568	25.256000	-8.820000
	138.249907	1588.361638	25.274000	-8.850000
	138.349913	1588.356093	25.282000	-8.840000
	138.453919	1588.351935	25.266000	-8.830000
	138.549924	1588.358866	25.264000	-8.750000
	138.649930	1588.358866	25.264000	-8.750000
	138.749936	1588.351936	25.274000	-8.850000
	138.849942	1588.353322	25.280000	-8.790000
	138.949947	1588.356094	25.272000	-8.780000
	139.049953	1588.354708	25.274000	-8.810000
	139.149959	1588.354708	25.254000	-8.800000
	139.249964	1588.345005	25.274000	-8.870000
	139.349970	1588.342233	25.266000	-8.820000
	139.449976	1588.358867	25.266000	-8.680000
	139.549982	1588.360253	25.268000	-8.790000
	139.649987	1588.358867	25.268000	-8.810000
	139.749993	1588.358867	25.260000	-8.800000
	139.849999	1588.358867	25.278000	-8.800000
	139.950005	1588.357481	25.262000	-8.810000
	140.050010	1588.361639	25.254000	-8.770000
	140.156016	1588.361639	25.268000	-8.800000
	140.250021	1588.357481	25.260000	-8.830000
	140.350027	1588.357481	25.260000	-8.830000
	140.450033	1588.353323	25.272000	-8.830000
	140.550039	1588.353323	25.262000	-8.800000
	140.650044	1588.354709	25.278000	-8.790000
	140.750050	1588.351937	25.260000	-8.820000
	140.850056	1588.351937	25.278000	-8.800000
	140.950062	1588.351937	25.278000	-8.800000
	141.050067	1588.353323	25.264000	-8.790000
	141.150073	1588.351937	25.268000	-8.810000
	141.250079	1588.346393	25.272000	-8.840000
	141.350084	1588.349165	25.268000	-8.780000
	141.450090	1588.345007	25.276000	-8.830000
	141.550096	1588.342234	25.258000	-8.820000
	141.650102	1588.345007	25.256000	-8.780000
	141.750107	1588.351937	25.268000	-8.750000
	141.854113	1588.351937	25.282000	-8.800000
	141.950119	1588.354709	25.240000	-8.780000
	142.050125	1588.354709	25.240000	-8.780000
	142.150130	1588.364412	25.274000	-8.730000
	142.250136	1588.360254	25.276000	-8.830000
	142.350142	1588.357482	25.254000	-8.820000
	142.454148	1588.353324	25.266000	-8.830000
	142.550153	1588.347779	25.270000	-8.840000
	142.650159	1588.346393	25.286000	-8.810000
	142.750165	1588.346393	25.264000	-8.800000
	142.859171	1588.342235	25.274000	-8.830000
	142.950176	1588.340849	25.282000	-8.810000
	143.050182	1588.342235	25.266000	-8.790000
	143.150187	1588.343621	25.274000	-8.790000
	143.250193	1588.343621	25.300000	-8.800000
	143.354199	1588.342235	25.266000	-8.810000
	143.450205	1588.343621	25.278000	-8.790000
	143.550210	1588.345007	25.290000	-8.790000
	143.650216	1588.342235	25.268000	-8.820000
	143.750222	1588.343621	25.246000	-8.790000
	143.850227	1588.347780	25.286000	-8.770000
	144.000236	1588.345007	25.282000	-8.820000
	144.100242	1588.346393	25.274000	-8.790000
	144.200247	1588.339463	25.276000	-8.850000
	144.300253	1588.332533	25.258000	-8.850000
	144.450262	1588.332533	25.268000	-8.800000
	144.550268	1588.331147	25.238000	-8.810000
	144.650273	1588.331147	25.304000	-8.800000
	144.750279	1588.336691	25.266000	-8.760000
	144.850285	1588.331147	25.300000	-8.840000
	144.950290	1588.324217	25.260000	-8.850000
	145.050296	1588.331147	25.254000	-8.750000
	145.200305	1588.332533	25.262000	-8.790000
	145.300311	1588.332533	25.262000	-8.790000
	145.400316	1588.332533	25.264000	-8.800000
	145.500322	1588.329761	25.270000	-8.820000
	145.600327	1588.332533	25.282000	-8.780000
	145.700333	1588.335306	25.276000	-8.780000
	145.800339	1588.328375	25.270000	-8.850000
	145.900345	1588.329761	25.262000	-8.790000
	146.000350	1588.329761	25.300000	-8.800000
	146.100356	1588.335306	25.262000	-8.760000
	146.200362	1588.339464	25.290000	-8.770000
	146.300368	1588.339464	25.270000	-8.800000
	146.400373	1588.342236	25.254000	-8.780000
	146.500379	1588.343622	25.278000	-8.790000
	146.600385	1588.338078	25.280000	-8.840000
	146.702391	1588.336692	25.270000	-8.810000
	146.750393	1588.338078	25.270000	-8.790000
	146.900402	1588.339464	25.252000	-8.790000
	147.000408	1588.339464	25.252000	-8.790000
	147.100413	1588.336692	25.276000	-8.820000
	147.200419	1588.336692	25.284000	-8.800000
	147.300425	1588.338078	25.278000	-8.790000
	147.400431	1588.336692	25.276000	-8.810000
	147.500436	1588.333920	25.292000	-8.820000
	147.600442	1588.329762	25.296000	-8.830000
	147.715448	1588.331148	25.288000	-8.790000
	147.800454	1588.331148	25.288000	-8.790000
	147.906459	1588.331148	25.280000	-8.800000
	148.003465	1588.321445	25.242000	-8.850000
	148.164474	1588.321445	25.242000	-8.850000
	148.252479	1588.320059	25.278000	-8.810000
	148.350485	1588.320059	25.268000	-8.800000
	148.450490	1588.314515	25.272000	-8.840000
	148.550497	1588.318673	25.270000	-8.770000
	148.650502	1588.321446	25.266000	-8.780000
	148.750508	1588.325604	25.292000	-8.770000
	148.850513	1588.324218	25.266000	-8.810000
	148.950519	1588.317288	25.282000	-8.850000
	149.050525	1588.321446	25.272000	-8.770000
	149.152531	1588.322832	25.288000	-8.790000
	149.250536	1588.328376	25.278000	-8.760000
	149.350542	1588.326990	25.242000	-8.810000
	149.449548	1588.328376	25.278000	-8.790000
	149.549553	1588.331149	25.278000	-8.780000
	149.649559	1588.329762	25.280000	-8.810000
	149.749565	1588.333921	25.290000	-8.770000
	149.849571	1588.340851	25.298000	-8.750000
	149.949576	1588.343624	25.276000	-8.780000
	150.099585	1588.343624	25.268000	-8.800000
	150.199591	1588.343624	25.268000	-8.800000
	150.299596	1588.347782	25.286000	-8.770000
	150.399602	1588.343624	25.266000	-8.830000
	150.499608	1588.343624	25.270000	-8.800000
	150.599614	1588.349168	25.280000	-8.760000
	150.699619	1588.346396	25.272000	-8.820000
	150.799625	1588.340852	25.274000	-8.840000
	150.899631	1588.336693	25.286000	-8.830000
	150.999637	1588.336693	25.296000	-8.800000
	151.099642	1588.335307	25.268000	-8.810000
	151.199648	1588.333921	25.288000	-8.810000
	151.299654	1588.336693	25.266000	-8.780000
	151.405660	1588.340852	25.278000	-8.770000
	151.499665	1588.343624	25.268000	-8.780000
	151.599671	1588.342238	25.280000	-8.810000
	151.699677	1588.339466	25.274000	-8.820000
	151.799682	1588.338080	25.272000	-8.810000
	151.899688	1588.333921	25.270000	-8.830000
	151.999693	1588.338080	25.262000	-8.770000
	152.099699	1588.336694	25.268000	-8.810000
	152.199705	1588.335308	25.262000	-8.810000
	152.349714	1588.335308	25.262000	-8.810000
	152.449719	1588.331149	25.286000	-8.830000
	152.549725	1588.329763	25.294000	-8.810000
	152.649731	1588.329763	25.288000	-8.800000
	152.749736	1588.331149	25.262000	-8.790000
	152.849742	1588.338080	25.292000	-8.750000
	152.949748	1588.335308	25.302000	-8.820000
	153.049754	1588.328378	25.252000	-8.850000
	153.149759	1588.322833	25.274000	-8.840000
	153.249765	1588.320061	25.294000	-8.820000
	153.349771	1588.321447	25.266000	-8.790000
	153.449777	1588.322833	25.280000	-8.790000
	153.549782	1588.328378	25.250000	-8.760000
	153.649788	1588.329764	25.292000	-8.790000
	153.754794	1588.335308	25.292000	-8.760000
	153.849800	1588.336694	25.278000	-8.790000
	153.949805	1588.338080	25.276000	-8.790000
	154.049811	1588.339466	25.260000	-8.790000
	154.149817	1588.333922	25.276000	-8.840000
	154.249822	1588.333922	25.276000	-8.840000
	154.349828	1588.333922	25.282000	-8.800000
	154.449834	1588.329764	25.294000	-8.830000
	154.549839	1588.331150	25.308000	-8.790000
	154.649845	1588.328378	25.294000	-8.820000
	154.749851	1588.329764	25.272000	-8.790000
	154.849857	1588.329764	25.294000	-8.800000
	154.949862	1588.326992	25.280000	-8.820000
	155.049868	1588.324220	25.294000	-8.820000
	155.149874	1588.335309	25.278000	-8.720000
	155.249879	1588.336695	25.266000	-8.790000
	155.349885	1588.321449	25.274000	-8.910000
	155.456892	1588.311746	25.284000	-8.870000
	155.549897	1588.311746	25.280000	-8.800000
	155.649902	1588.310360	25.272000	-8.810000
	155.749908	1588.313133	25.278000	-8.780000
	155.849914	1588.320063	25.290000	-8.750000
	155.949920	1588.320063	25.290000	-8.750000
	156.049925	1588.317291	25.278000	-8.820000
	156.149931	1588.317291	25.264000	-8.800000
	156.249937	1588.315905	25.276000	-8.810000
	156.349943	1588.318677	25.268000	-8.780000
	156.449948	1588.321449	25.290000	-8.780000
	156.549954	1588.318677	25.290000	-8.820000
	156.649960	1588.324221	25.278000	-8.760000
	156.749965	1588.326994	25.284000	-8.780000
	156.849971	1588.331152	25.288000	-8.770000
	156.949977	1588.331152	25.262000	-8.800000
	157.053983	1588.332538	25.268000	-8.790000
	157.149988	1588.325608	25.286000	-8.850000
	157.249994	1588.328380	25.292000	-8.780000
	157.350000	1588.329766	25.280000	-8.790000
	157.450006	1588.329766	25.278000	-8.800000
	157.550011	1588.326994	25.300000	-8.820000
	157.650017	1588.326994	25.300000	-8.820000
	157.750022	1588.326994	25.298000	-8.800000
	157.850029	1588.329766	25.276000	-8.780000
	157.950034	1588.328380	25.298000	-8.810000
	158.050040	1588.333924	25.282000	-8.760000
	158.150045	1588.328380	25.282000	-8.840000
	158.250051	1588.329766	25.288000	-8.790000
	158.350057	1588.332538	25.298000	-8.780000
	158.450063	1588.335311	25.262000	-8.780000
	158.550068	1588.333924	25.294000	-8.810000
	158.652074	1588.324222	25.282000	-8.870000
	158.750080	1588.324222	25.262000	-8.800000
	158.850086	1588.326994	25.272000	-8.780000
	158.950091	1588.329767	25.308000	-8.780000
	159.050097	1588.325608	25.308000	-8.830000
	159.150103	1588.322836	25.272000	-8.820000
	159.250108	1588.325608	25.280000	-8.780000
	159.350114	1588.324222	25.284000	-8.810000
	159.450120	1588.324222	25.284000	-8.810000
	159.550126	1588.325608	25.312000	-8.790000
	159.650131	1588.328381	25.280000	-8.780000
	159.750137	1588.326995	25.286000	-8.810000
	159.850142	1588.321450	25.270000	-8.840000
	159.950149	1588.324222	25.272000	-8.780000
	160.050154	1588.324222	25.270000	-8.800000
	160.150160	1588.328381	25.290000	-8.770000
	160.250165	1588.333925	25.294000	-8.760000
	160.357172	1588.336697	25.274000	-8.780000
	160.450177	1588.332539	25.304000	-8.830000
	160.550183	1588.328381	25.276000	-8.830000
	160.650188	1588.326995	25.300000	-8.810000
	160.750194	1588.326995	25.270000	-8.800000
	160.850200	1588.324223	25.296000	-8.820000
	160.950206	1588.325609	25.286000	-8.790000
	161.050211	1588.320065	25.300000	-8.840000
	161.200220	1588.320065	25.300000	-8.840000
	161.300226	1588.324223	25.288000	-8.770000
	161.400231	1588.325609	25.264000	-8.790000
	161.500237	1588.328381	25.274000	-8.780000
	161.600243	1588.333926	25.286000	-8.760000
	161.700249	1588.336698	25.280000	-8.780000
	161.800254	1588.329767	25.276000	-8.850000
	161.900260	1588.325609	25.298000	-8.830000
	162.000266	1588.331154	25.280000	-8.760000
	162.100271	1588.326996	25.280000	-8.830000
	162.200277	1588.332540	25.286000	-8.760000
	162.300283	1588.339470	25.286000	-8.750000
	162.400289	1588.336698	25.302000	-8.820000
	162.500294	1588.329768	25.276000	-8.850000
	162.600300	1588.328382	25.286000	-8.810000
	162.700306	1588.321452	25.312000	-8.850000
	162.750309	1588.322838	25.264000	-8.790000
	162.900317	1588.320066	25.278000	-8.820000
	163.000323	1588.321452	25.300000	-8.790000
	163.100328	1588.317294	25.294000	-8.830000
	163.200335	1588.318680	25.266000	-8.790000
	163.300340	1588.310363	25.300000	-8.860000
	163.400346	1588.308977	25.294000	-8.810000
	163.500351	1588.310363	25.290000	-8.790000
	163.600357	1588.317294	25.306000	-8.750000
	163.750366	1588.313136	25.292000	-8.830000
	163.850371	1588.311750	25.282000	-8.810000
	163.950377	1588.313136	25.282000	-8.790000
	164.050383	1588.311750	25.294000	-8.810000
	164.150389	1588.315908	25.282000	-8.770000
	164.250394	1588.308978	25.280000	-8.850000
	164.400403	1588.304820	25.272000	-8.830000
	164.500409	1588.304820	25.272000	-8.830000
	164.600414	1588.306206	25.304000	-8.790000
	164.700420	1588.310364	25.280000	-8.770000
	164.800426	1588.314522	25.286000	-8.770000
	164.900432	1588.314522	25.274000	-8.800000
	165.000437	1588.321453	25.284000	-8.750000
	165.100443	1588.322839	25.278000	-8.790000
	165.200449	1588.325611	25.276000	-8.780000
	165.300455	1588.313137	25.288000	-8.890000
	165.400460	1588.313137	25.276000	-8.800000
	165.500466	1588.311751	25.272000	-8.810000
	165.600471	1588.313137	25.300000	-8.790000
	165.700477	1588.313137	25.290000	-8.800000
	165.800483	1588.308979	25.298000	-8.830000
	165.900489	1588.313137	25.322000	-8.770000
	166.010495	1588.314523	25.280000	-8.790000
	166.100500	1588.306207	25.280000	-8.860000
	166.200506	1588.307593	25.282000	-8.790000
	166.300512	1588.307593	25.282000	-8.790000
	166.400517	1588.310365	25.266000	-8.780000
	166.500523	1588.311751	25.282000	-8.790000
	166.600529	1588.308979	25.294000	-8.820000
	166.700534	1588.315909	25.284000	-8.750000
	166.800540	1588.314523	25.282000	-8.810000
	166.899546	1588.325612	25.274000	-8.720000
	166.999552	1588.325612	25.280000	-8.800000
	167.099557	1588.318682	25.296000	-8.850000
	167.199563	1588.320068	25.268000	-8.790000
	167.299569	1588.317296	25.304000	-8.820000
	167.399574	1588.317296	25.292000	-8.800000
	167.499580	1588.308980	25.298000	-8.860000
	167.605586	1588.307594	25.314000	-8.810000
	167.699592	1588.310366	25.272000	-8.780000
	167.799597	1588.310366	25.288000	-8.800000
	167.899603	1588.311752	25.298000	-8.790000
	167.999609	1588.308980	25.300000	-8.820000
	168.099615	1588.308980	25.318000	-8.800000
	168.199620	1588.307594	25.298000	-8.810000
	168.299626	1588.307594	25.292000	-8.800000
	168.449635	1588.304822	25.272000	-8.820000
	168.549640	1588.311752	25.298000	-8.750000
	168.649646	1588.308980	25.282000	-8.820000
	168.749652	1588.306208	25.278000	-8.820000
	168.849658	1588.302050	25.290000	-8.830000
	168.949663	1588.297892	25.284000	-8.830000
	169.049669	1588.300664	25.290000	-8.780000
	169.199677	1588.308980	25.284000	-8.740000
	169.299683	1588.308980	25.288000	-8.800000
	169.399689	1588.315911	25.304000	-8.750000
	169.499695	1588.308981	25.296000	-8.850000
	169.599700	1588.308981	25.288000	-8.800000
	169.699706	1588.308981	25.288000	-8.800000
	169.799712	1588.310367	25.268000	-8.790000
	169.899717	1588.318683	25.294000	-8.740000
	169.999723	1588.321455	25.292000	-8.780000
	170.099729	1588.325614	25.288000	-8.770000
	170.199735	1588.322842	25.274000	-8.820000
	170.299740	1588.325614	25.296000	-8.780000
	170.399746	1588.321456	25.300000	-8.830000
	170.499752	1588.322842	25.270000	-8.790000
	170.599758	1588.318684	25.286000	-8.830000
	170.700763	1588.320070	25.292000	-8.790000
	170.799769	1588.315911	25.270000	-8.830000
	170.899775	1588.315911	25.296000	-8.800000
	170.999780	1588.315911	25.266000	-8.800000
	171.099786	1588.317298	25.260000	-8.790000
	171.199792	1588.311753	25.296000	-8.840000
	171.299798	1588.308981	25.282000	-8.820000
	171.399803	1588.311753	25.284000	-8.780000
	171.499809	1588.311753	25.284000	-8.780000
	171.649817	1588.313139	25.268000	-8.790000
	171.749823	1588.310367	25.300000	-8.820000
	171.849829	1588.311753	25.304000	-8.790000
	171.949835	1588.311753	25.282000	-8.800000
	172.049840	1588.308981	25.294000	-8.820000
	172.149846	1588.318684	25.300000	-8.730000
	172.249852	1588.317298	25.292000	-8.810000
	172.349858	1588.324228	25.298000	-8.750000
	172.449863	1588.324228	25.286000	-8.800000
	172.549869	1588.321456	25.304000	-8.820000
	172.649875	1588.317298	25.300000	-8.830000
	172.749880	1588.315912	25.268000	-8.810000
	172.849886	1588.318684	25.306000	-8.780000
	172.949892	1588.321456	25.290000	-8.780000
	173.049898	1588.322843	25.298000	-8.790000
	173.099901	1588.318684	25.284000	-8.830000
	173.249909	1588.320070	25.296000	-8.790000
	173.349915	1588.320070	25.296000	-8.790000
	173.449921	1588.333932	25.292000	-8.700000
	173.549926	1588.328388	25.288000	-8.840000
	173.649932	1588.333932	25.296000	-8.760000
	173.749938	1588.336704	25.272000	-8.780000
	173.849944	1588.339476	25.286000	-8.780000
	173.949949	1588.335318	25.278000	-8.830000
	174.049955	1588.333932	25.282000	-8.810000
	174.149961	1588.327002	25.296000	-8.850000
	174.249966	1588.329774	25.286000	-8.780000
	174.349972	1588.325616	25.284000	-8.830000
	174.449978	1588.325616	25.280000	-8.800000
	174.549984	1588.315914	25.304000	-8.870000
	174.656990	1588.307597	25.272000	-8.860000
	174.749995	1588.311756	25.290000	-8.770000
	174.850000	1588.315914	25.280000	-8.770000
	174.950006	1588.321458	25.286000	-8.760000
	175.051012	1588.322844	25.276000	-8.790000
	175.150018	1588.324230	25.280000	-8.790000
	175.250023	1588.320072	25.298000	-8.830000
	175.350029	1588.320072	25.298000	-8.830000
	175.500038	1588.314528	25.294000	-8.840000
	175.600043	1588.313142	25.282000	-8.810000
	175.700049	1588.310370	25.292000	-8.820000
	175.800055	1588.313142	25.304000	-8.780000
	175.900061	1588.315914	25.314000	-8.780000
	175.950064	1588.320072	25.294000	-8.770000
	176.100072	1588.315914	25.282000	-8.830000
	176.200078	1588.314528	25.288000	-8.810000
	176.300084	1588.318686	25.288000	-8.770000
	176.400089	1588.311756	25.302000	-8.850000
	176.500095	1588.313142	25.278000	-8.790000
	176.600101	1588.311756	25.290000	-8.810000
	176.700107	1588.303440	25.304000	-8.860000
	176.800112	1588.303440	25.276000	-8.800000
	176.900118	1588.300668	25.264000	-8.820000
	176.950121	1588.295124	25.300000	-8.840000
	177.100129	1588.295124	25.300000	-8.840000
	177.200135	1588.300668	25.298000	-8.760000
	177.300141	1588.306212	25.286000	-8.760000
	177.400146	1588.314529	25.300000	-8.740000
	177.500152	1588.308985	25.312000	-8.840000
	177.600158	1588.313143	25.290000	-8.770000
	177.700164	1588.317301	25.300000	-8.770000
	177.800169	1588.315915	25.278000	-8.810000
	177.900175	1588.314529	25.298000	-8.810000
	178.000181	1588.318687	25.282000	-8.770000
	178.100186	1588.313143	25.308000	-8.840000
	178.200192	1588.306213	25.282000	-8.850000
	178.300198	1588.306213	25.294000	-8.800000
	178.400204	1588.308985	25.290000	-8.780000
	178.500209	1588.315916	25.296000	-8.750000
	178.606215	1588.317302	25.292000	-8.790000
	178.700221	1588.315916	25.288000	-8.810000
	178.800227	1588.315916	25.268000	-8.800000
	178.900232	1588.315916	25.286000	-8.800000
	179.000238	1588.315916	25.286000	-8.800000
	179.100244	1588.317302	25.280000	-8.790000
	179.200249	1588.318688	25.292000	-8.790000
	179.300255	1588.321460	25.276000	-8.780000
	179.400261	1588.320074	25.300000	-8.810000
	179.500267	1588.314530	25.294000	-8.840000
	179.601273	1588.308986	25.314000	-8.840000
	179.700278	1588.315916	25.308000	-8.750000
	179.800284	1588.313144	25.268000	-8.820000
	179.900290	1588.317302	25.268000	-8.770000
	180.000295	1588.318688	25.302000	-8.790000
	180.112302	1588.317302	25.312000	-8.810000
	180.202307	1588.313144	25.292000	-8.830000
	180.300313	1588.313144	25.308000	-8.800000
	180.400318	1588.306214	25.274000	-8.850000
	180.511324	1588.311758	25.314000	-8.760000
	180.600329	1588.314530	25.326000	-8.780000
	180.750338	1588.310372	25.282000	-8.830000
	180.850344	1588.311758	25.284000	-8.790000
	180.950349	1588.311758	25.264000	-8.800000
	181.050355	1588.314530	25.288000	-8.780000
	181.202364	1588.311758	25.290000	-8.820000
	181.300370	1588.297898	25.300000	-8.900000
	181.402375	1588.299284	25.284000	-8.790000
	181.500381	1588.299284	25.284000	-8.790000
	181.600387	1588.296512	25.264000	-8.820000
	181.700392	1588.289582	25.284000	-8.850000
	181.801398	1588.293740	25.274000	-8.770000
	181.950407	1588.293740	25.296000	-8.800000
	182.050412	1588.300671	25.296000	-8.750000
	182.150418	1588.304829	25.288000	-8.770000
	182.250424	1588.307601	25.272000	-8.780000
	182.350430	1588.310373	25.258000	-8.780000
	182.450435	1588.307601	25.296000	-8.820000
	182.550441	1588.315918	25.286000	-8.740000
	182.650447	1588.318690	25.290000	-8.780000
	182.750453	1588.315918	25.270000	-8.820000
	182.852458	1588.320076	25.284000	-8.770000
	182.950464	1588.314532	25.310000	-8.840000
	183.050469	1588.308988	25.296000	-8.840000
	183.150476	1588.306216	25.304000	-8.820000
	183.252481	1588.313146	25.326000	-8.750000
	183.350487	1588.310374	25.292000	-8.820000
	183.450492	1588.310374	25.286000	-8.800000
	183.550498	1588.310374	25.286000	-8.800000
	183.650504	1588.315918	25.276000	-8.760000
	183.750510	1588.311760	25.290000	-8.830000
	183.850515	1588.311760	25.292000	-8.800000
	183.950521	1588.317304	25.308000	-8.760000
	184.050527	1588.318691	25.308000	-8.790000
	184.150533	1588.307602	25.266000	-8.880000
	184.250538	1588.306216	25.306000	-8.810000
	184.356544	1588.311761	25.284000	-8.760000
	184.449550	1588.308989	25.308000	-8.820000
	184.549555	1588.304830	25.296000	-8.830000
	184.649561	1588.307603	25.298000	-8.780000
	184.749567	1588.306217	25.282000	-8.810000
	184.849573	1588.306217	25.306000	-8.800000
	184.949578	1588.308989	25.244000	-8.780000
	185.049584	1588.306217	25.296000	-8.820000
	185.149590	1588.307603	25.284000	-8.790000
	185.299598	1588.306217	25.298000	-8.810000
	185.399604	1588.306217	25.298000	-8.810000
	185.499610	1588.306217	25.282000	-8.800000
	185.599616	1588.303444	25.278000	-8.820000
	185.699621	1588.304831	25.290000	-8.790000
	185.799627	1588.310375	25.302000	-8.760000
	185.899632	1588.308989	25.294000	-8.810000
	185.999638	1588.311761	25.288000	-8.780000
	186.099644	1588.313147	25.280000	-8.790000
	186.199650	1588.314533	25.278000	-8.790000
	186.299655	1588.308989	25.272000	-8.840000
	186.399661	1588.317306	25.292000	-8.740000
	186.499667	1588.303445	25.294000	-8.900000
	186.599673	1588.311762	25.306000	-8.740000
	186.699678	1588.306218	25.290000	-8.840000
	186.804685	1588.302060	25.264000	-8.830000
	186.899690	1588.296516	25.296000	-8.840000
	186.999695	1588.299288	25.280000	-8.780000
	187.099701	1588.299288	25.280000	-8.780000
	187.199707	1588.304832	25.292000	-8.760000
	187.299713	1588.308990	25.256000	-8.770000
	187.399718	1588.307604	25.308000	-8.810000
	187.499724	1588.303446	25.294000	-8.830000
	187.599730	1588.306218	25.292000	-8.780000
	187.699736	1588.307604	25.300000	-8.790000
	187.799741	1588.304832	25.274000	-8.820000
	187.899747	1588.308990	25.308000	-8.770000
	187.999753	1588.310376	25.280000	-8.790000
	188.099759	1588.306218	25.300000	-8.830000
	188.199764	1588.306218	25.290000	-8.800000
	188.299770	1588.300674	25.286000	-8.840000
	188.406776	1588.306218	25.300000	-8.760000
	188.499781	1588.303446	25.318000	-8.820000
	188.599787	1588.303446	25.292000	-8.800000
	188.699793	1588.300674	25.304000	-8.820000
	188.799798	1588.297902	25.308000	-8.820000
	188.899804	1588.297902	25.308000	-8.820000
	188.999810	1588.303447	25.284000	-8.760000
	189.099816	1588.310377	25.298000	-8.750000
	189.199821	1588.308991	25.298000	-8.810000
	189.299827	1588.310377	25.292000	-8.790000
	189.399833	1588.307605	25.290000	-8.820000
	189.499838	1588.306219	25.284000	-8.810000
	189.599844	1588.311763	25.286000	-8.760000
	189.699850	1588.313149	25.292000	-8.790000
	189.799856	1588.314535	25.274000	-8.790000
	189.899861	1588.311763	25.304000	-8.820000
	189.999867	1588.314535	25.282000	-8.780000
	190.105873	1588.317307	25.286000	-8.780000
	190.199879	1588.314535	25.308000	-8.820000
	190.299884	1588.313149	25.286000	-8.810000
	190.399890	1588.304833	25.324000	-8.860000
	190.499896	1588.304833	25.294000	-8.800000
	190.599901	1588.304833	25.294000	-8.800000
	190.699907	1588.299289	25.294000	-8.840000
	190.801913	1588.297903	25.294000	-8.810000
	190.899919	1588.299289	25.282000	-8.790000
	191.001925	1588.300675	25.274000	-8.790000
	191.099930	1588.303447	25.272000	-8.780000
	191.201936	1588.302061	25.290000	-8.810000
	191.307942	1588.296517	25.280000	-8.840000
	191.399947	1588.302061	25.286000	-8.760000
	191.499953	1588.303447	25.268000	-8.790000
	191.599958	1588.306220	25.306000	-8.780000
	191.749967	1588.303447	25.314000	-8.820000
	191.849973	1588.306220	25.296000	-8.780000
	191.949979	1588.302061	25.286000	-8.830000
	192.049984	1588.302061	25.316000	-8.800000
	192.149990	1588.302061	25.328000	-8.800000
	192.299999	1588.297903	25.296000	-8.830000
	192.400004	1588.295131	25.290000	-8.820000
	192.500010	1588.299289	25.306000	-8.770000
	192.600016	1588.297903	25.272000	-8.810000
	192.700022	1588.304834	25.288000	-8.750000
	192.850030	1588.307606	25.274000	-8.780000
	192.950036	1588.304834	25.312000	-8.820000
	193.050042	1588.306220	25.296000	-8.790000
	193.150047	1588.304834	25.278000	-8.810000
	193.260054	1588.310378	25.312000	-8.760000
	193.350059	1588.308992	25.310000	-8.810000
	193.450065	1588.308992	25.288000	-8.800000
	193.550070	1588.308992	25.288000	-8.800000
	193.650076	1588.303448	25.290000	-8.840000
	193.750082	1588.303448	25.264000	-8.800000
	193.850087	1588.292360	25.306000	-8.880000
	193.950093	1588.295132	25.274000	-8.780000
	194.100101	1588.297904	25.296000	-8.780000
	194.150105	1588.297904	25.300000	-8.800000
	194.300113	1588.296518	25.304000	-8.810000
	194.400119	1588.299290	25.284000	-8.780000
	194.500124	1588.302062	25.298000	-8.780000
	194.550128	1588.297904	25.300000	-8.830000
	194.700136	1588.295132	25.330000	-8.820000
	194.802142	1588.295132	25.330000	-8.820000
	194.900147	1588.297904	25.296000	-8.780000
	195.000153	1588.296518	25.322000	-8.810000
	195.100159	1588.293746	25.288000	-8.820000
	195.202165	1588.285430	25.296000	-8.860000
	195.300170	1588.289588	25.266000	-8.770000
	195.400176	1588.285430	25.322000	-8.830000
	195.500182	1588.286816	25.288000	-8.790000
	195.600187	1588.284044	25.336000	-8.820000
	195.702193	1588.288202	25.308000	-8.770000
	195.800199	1588.285430	25.312000	-8.820000
	195.900205	1588.285430	25.312000	-8.820000
	196.000210	1588.286816	25.292000	-8.790000
	196.100216	1588.282658	25.308000	-8.830000
	196.200222	1588.282658	25.304000	-8.800000
	196.300228	1588.285430	25.288000	-8.780000
	196.400233	1588.289589	25.312000	-8.770000
	196.500239	1588.289589	25.308000	-8.800000
	196.600245	1588.293747	25.300000	-8.770000
	196.700251	1588.297905	25.318000	-8.770000
	196.800256	1588.302063	25.290000	-8.770000
	196.900262	1588.307607	25.276000	-8.760000
	197.000268	1588.308994	25.312000	-8.790000
	197.100273	1588.311766	25.284000	-8.780000
	197.200279	1588.310380	25.282000	-8.810000
	197.305285	1588.314538	25.282000	-8.770000
	197.402290	1588.315924	25.302000	-8.790000
	197.500296	1588.310380	25.296000	-8.840000
	197.600302	1588.306222	25.296000	-8.830000
	197.700308	1588.308994	25.290000	-8.780000
	197.800313	1588.308994	25.290000	-8.780000
	197.900319	1588.308994	25.280000	-8.800000
	198.000325	1588.306222	25.300000	-8.820000
	198.100330	1588.303450	25.280000	-8.820000
	198.200336	1588.297905	25.290000	-8.840000
	198.306342	1588.293747	25.298000	-8.830000
	198.400348	1588.293747	25.290000	-8.800000
	198.505353	1588.307608	25.312000	-8.730000
	198.700365	1588.307608	25.312000	-8.730000
	198.800371	1588.304836	25.298000	-8.820000
	198.900376	1588.306222	25.300000	-8.790000
	199.000382	1588.310380	25.296000	-8.770000
	199.100388	1588.311766	25.282000	-8.790000
	199.200393	1588.307608	25.300000	-8.830000
	199.300399	1588.314539	25.286000	-8.750000
	199.400405	1588.318697	25.296000	-8.770000
	199.500411	1588.318697	25.302000	-8.800000
	199.600416	1588.313153	25.322000	-8.840000
	199.700422	1588.308995	25.298000	-8.830000
	199.804428	1588.310381	25.312000	-8.790000
	199.900434	1588.311767	25.280000	-8.790000
	200.000439	1588.315925	25.292000	-8.770000
	200.100445	1588.308995	25.308000	-8.850000
	200.200450	1588.302065	25.286000	-8.850000
	200.300457	1588.304837	25.322000	-8.780000
	200.400462	1588.303451	25.304000	-8.810000
	200.500468	1588.302065	25.316000	-8.810000
	200.600473	1588.302065	25.316000	-8.810000
	200.700479	1588.299293	25.310000	-8.820000
	200.800485	1588.297907	25.310000	-8.810000
	200.900491	1588.293749	25.302000	-8.830000
	201.000496	1588.300679	25.306000	-8.750000
	201.100502	1588.299293	25.312000	-8.810000
	201.200508	1588.290977	25.296000	-8.860000
	201.300514	1588.286819	25.302000	-8.830000
	201.400519	1588.290977	25.320000	-8.770000
	201.507525	1588.290977	25.274000	-8.800000
	201.600531	1588.288205	25.310000	-8.820000
	201.700536	1588.290977	25.292000	-8.780000
	201.800542	1588.292363	25.326000	-8.790000
	201.899548	1588.296521	25.294000	-8.770000
	201.999554	1588.295135	25.312000	-8.810000
	202.099559	1588.296521	25.284000	-8.790000
	202.199565	1588.299293	25.304000	-8.780000
	202.299571	1588.293749	25.314000	-8.840000
	202.449579	1588.293749	25.314000	-8.840000
	202.549585	1588.297907	25.286000	-8.770000
	202.649590	1588.299293	25.320000	-8.790000
	202.749597	1588.297907	25.314000	-8.810000
	202.849602	1588.295135	25.302000	-8.820000
	202.949608	1588.296521	25.282000	-8.790000
	203.049613	1588.295135	25.282000	-8.810000
	203.149619	1588.296521	25.302000	-8.790000
	203.249625	1588.297907	25.300000	-8.790000
	203.349631	1588.295135	25.306000	-8.820000
	203.449636	1588.293749	25.296000	-8.810000
	203.549642	1588.288205	25.302000	-8.840000
	203.649648	1588.284047	25.304000	-8.830000
	203.749654	1588.285433	25.278000	-8.790000
	203.849659	1588.286819	25.288000	-8.790000
	203.956666	1588.293750	25.286000	-8.750000
	204.049671	1588.293750	25.286000	-8.750000
	204.149676	1588.299294	25.284000	-8.760000
	204.249682	1588.286820	25.296000	-8.890000
	204.349688	1588.290978	25.314000	-8.770000
	204.449694	1588.290978	25.304000	-8.800000
	204.549699	1588.288206	25.302000	-8.820000
	204.649705	1588.296523	25.320000	-8.740000
	204.749711	1588.304839	25.308000	-8.740000
	204.849717	1588.311769	25.324000	-8.750000
	204.949722	1588.306225	25.310000	-8.840000
	205.049728	1588.302067	25.298000	-8.830000
	205.149734	1588.295137	25.304000	-8.850000
	205.249740	1588.296523	25.314000	-8.790000
	205.349745	1588.302067	25.288000	-8.760000
	205.449751	1588.299295	25.314000	-8.820000
	205.553757	1588.299295	25.288000	-8.800000
	205.649762	1588.296523	25.316000	-8.820000
	205.749768	1588.296523	25.316000	-8.820000
	205.849774	1588.289593	25.318000	-8.850000
	205.950779	1588.292365	25.312000	-8.780000
	206.049785	1588.292365	25.308000	-8.800000
	206.149791	1588.295137	25.310000	-8.780000
	206.249796	1588.290979	25.312000	-8.830000
	206.349802	1588.295137	25.300000	-8.770000
	206.453808	1588.290979	25.324000	-8.830000
	206.561814	1588.292365	25.320000	-8.790000
	206.649819	1588.292365	25.320000	-8.790000
	206.749825	1588.289593	25.326000	-8.820000
	206.852831	1588.295138	25.322000	-8.760000
	206.949837	1588.295138	25.308000	-8.800000
	207.049842	1588.293752	25.294000	-8.810000
	207.149848	1588.296524	25.296000	-8.780000
	207.249854	1588.296524	25.308000	-8.800000
	207.349860	1588.295138	25.292000	-8.810000
	207.456866	1588.290980	25.318000	-8.830000
	207.549871	1588.292366	25.302000	-8.790000
	207.649877	1588.292366	25.302000	-8.790000
	207.749882	1588.284050	25.280000	-8.860000
	207.849888	1588.293752	25.288000	-8.730000
	207.949894	1588.292366	25.316000	-8.810000
	208.049900	1588.293752	25.310000	-8.790000
	208.149905	1588.284050	25.304000	-8.870000
	208.249911	1588.281278	25.330000	-8.820000
	208.350917	1588.284050	25.274000	-8.780000
	208.461923	1588.284050	25.296000	-8.800000
	208.550928	1588.295139	25.280000	-8.720000
	208.649934	1588.302069	25.300000	-8.750000
	208.749939	1588.300683	25.306000	-8.810000
	208.849946	1588.304841	25.314000	-8.770000
	209.002954	1588.303455	25.308000	-8.810000
	209.099960	1588.306228	25.314000	-8.780000
	209.207966	1588.307614	25.312000	-8.790000
	209.299971	1588.303455	25.294000	-8.830000
	209.449980	1588.303455	25.338000	-8.800000
	209.549985	1588.302069	25.320000	-8.810000
	209.649991	1588.299297	25.324000	-8.820000
	209.749997	1588.303456	25.300000	-8.770000
	209.852003	1588.307614	25.316000	-8.770000
	210.000011	1588.309000	25.286000	-8.790000
	210.100017	1588.307614	25.292000	-8.810000
	210.201023	1588.310386	25.304000	-8.780000
	210.300028	1588.307614	25.302000	-8.820000
	210.450037	1588.300684	25.306000	-8.850000
	210.550043	1588.303456	25.320000	-8.780000
	210.651048	1588.304842	25.316000	-8.790000
	210.750054	1588.307614	25.308000	-8.780000
	210.900063	1588.297912	25.296000	-8.870000
	211.000068	1588.293754	25.312000	-8.830000
	211.104074	1588.288210	25.326000	-8.840000
	211.200080	1588.286824	25.326000	-8.810000
	211.350088	1588.296526	25.332000	-8.730000
	211.450094	1588.302071	25.330000	-8.760000
	211.550100	1588.306229	25.306000	-8.770000
	211.650105	1588.304843	25.298000	-8.810000
	211.750111	1588.302071	25.318000	-8.820000
	211.900120	1588.306229	25.300000	-8.770000
	212.000125	1588.306229	25.300000	-8.770000
	212.101131	1588.302071	25.312000	-8.830000
	212.200137	1588.304843	25.300000	-8.780000
	212.300143	1588.304843	25.270000	-8.800000
	212.400148	1588.304843	25.294000	-8.800000
	212.500154	1588.300685	25.312000	-8.830000
	212.600160	1588.297913	25.302000	-8.820000
	212.708166	1588.295141	25.322000	-8.820000
	212.800171	1588.295141	25.320000	-8.800000
	212.900177	1588.289596	25.304000	-8.840000
	213.002183	1588.289596	25.304000	-8.800000
	213.100188	1588.289596	25.304000	-8.800000
	213.200194	1588.288210	25.294000	-8.810000
	213.300200	1588.292369	25.318000	-8.770000
	213.400206	1588.290983	25.314000	-8.810000
	213.500211	1588.286824	25.310000	-8.830000
	213.650220	1588.289597	25.320000	-8.780000
	213.750226	1588.290983	25.314000	-8.790000
	213.850231	1588.289597	25.304000	-8.810000
	213.950237	1588.290983	25.306000	-8.790000
	214.050243	1588.300685	25.326000	-8.730000
	214.100245	1588.302071	25.304000	-8.790000
	214.250254	1588.302071	25.304000	-8.790000
	214.350260	1588.300685	25.324000	-8.810000
	214.450265	1588.302071	25.316000	-8.790000
	214.550272	1588.304843	25.310000	-8.780000
	214.650277	1588.299299	25.312000	-8.840000
	214.750283	1588.293755	25.300000	-8.840000
	214.850288	1588.290983	25.308000	-8.820000
	214.950294	1588.289597	25.326000	-8.810000
	215.053300	1588.297914	25.316000	-8.740000
	215.100303	1588.289598	25.322000	-8.860000
	215.250311	1588.289598	25.354000	-8.800000
	215.350317	1588.290984	25.328000	-8.790000
	215.450323	1588.290984	25.328000	-8.790000
	215.600331	1588.293756	25.306000	-8.780000
	215.700337	1588.292370	25.320000	-8.810000
	215.800343	1588.295142	25.290000	-8.780000
	215.900349	1588.290984	25.324000	-8.830000
	216.000354	1588.293756	25.306000	-8.780000
	216.100360	1588.293756	25.300000	-8.800000
	216.200366	1588.295142	25.322000	-8.790000
	216.300372	1588.286826	25.320000	-8.860000
	216.400377	1588.285440	25.306000	-8.810000
	216.500383	1588.286826	25.314000	-8.790000
	216.550385	1588.292370	25.310000	-8.760000
	216.700394	1588.290984	25.312000	-8.810000
	216.800400	1588.290984	25.296000	-8.800000
	216.900406	1588.282668	25.338000	-8.860000
	216.950408	1588.284054	25.314000	-8.790000
	217.100417	1588.274352	25.306000	-8.870000
	217.200423	1588.284055	25.332000	-8.730000
	217.300428	1588.285441	25.322000	-8.790000
	217.400434	1588.285441	25.306000	-8.800000
	217.500440	1588.285441	25.306000	-8.800000
	217.600446	1588.285441	25.320000	-8.800000
	217.700451	1588.285441	25.274000	-8.800000
	217.800457	1588.292371	25.334000	-8.750000
	217.900463	1588.290985	25.340000	-8.810000
	218.000469	1588.289599	25.338000	-8.810000
	218.100474	1588.289599	25.322000	-8.800000
	218.200480	1588.289599	25.318000	-8.800000
	218.300486	1588.286827	25.320000	-8.820000
	218.400492	1588.288213	25.318000	-8.790000
	218.500497	1588.284055	25.294000	-8.830000
	218.604503	1588.281283	25.300000	-8.820000
	218.700509	1588.290985	25.310000	-8.730000
	218.800514	1588.286827	25.328000	-8.830000
	218.900520	1588.289599	25.330000	-8.780000
	219.000526	1588.285441	25.314000	-8.830000
	219.100532	1588.284055	25.310000	-8.810000
	219.200537	1588.284055	25.310000	-8.810000
	219.299543	1588.279897	25.324000	-8.830000
	219.399549	1588.282669	25.332000	-8.780000
	219.499555	1588.288213	25.288000	-8.760000
	219.599560	1588.281283	25.320000	-8.850000
	219.699566	1588.279897	25.330000	-8.810000
	219.799572	1588.288214	25.316000	-8.740000
	219.899577	1588.284056	25.330000	-8.830000
	219.999583	1588.282670	25.300000	-8.810000
	220.099589	1588.275740	25.326000	-8.850000
	220.202595	1588.272968	25.322000	-8.820000
	220.299600	1588.266038	25.324000	-8.850000
	220.399606	1588.270196	25.310000	-8.770000
	220.499611	1588.263266	25.338000	-8.850000
	220.599617	1588.267424	25.336000	-8.770000
	220.699623	1588.267424	25.324000	-8.800000
	220.799629	1588.266038	25.334000	-8.810000
	220.899634	1588.266038	25.338000	-8.800000
	220.999640	1588.266038	25.338000	-8.800000
	221.099646	1588.275740	25.322000	-8.730000
	221.199652	1588.270196	25.322000	-8.840000
	221.299657	1588.270196	25.316000	-8.800000
	221.399663	1588.274354	25.326000	-8.770000
	221.499669	1588.279899	25.310000	-8.760000
	221.599675	1588.284057	25.314000	-8.770000
	221.699680	1588.281285	25.294000	-8.820000
	221.802686	1588.284057	25.338000	-8.780000
	221.899692	1588.282671	25.344000	-8.810000
	221.999697	1588.284057	25.308000	-8.790000
	222.099703	1588.284057	25.334000	-8.800000
	222.199709	1588.282671	25.326000	-8.810000
	222.299715	1588.282671	25.346000	-8.800000
	222.399720	1588.286829	25.336000	-8.770000
	222.499726	1588.284057	25.326000	-8.820000
	222.599732	1588.281285	25.304000	-8.820000
	222.749740	1588.281285	25.304000	-8.820000
	222.849746	1588.278513	25.336000	-8.820000
	222.949752	1588.281285	25.310000	-8.780000
	223.049757	1588.278513	25.336000	-8.820000
	223.149763	1588.272969	25.304000	-8.840000
	223.249769	1588.275741	25.334000	-8.780000
	223.349775	1588.277127	25.336000	-8.790000
	223.449780	1588.278513	25.330000	-8.790000
	223.549786	1588.286829	25.336000	-8.740000
	223.649792	1588.285443	25.322000	-8.810000
	223.749797	1588.284057	25.332000	-8.810000
	223.849803	1588.272969	25.326000	-8.880000
	223.949809	1588.270197	25.352000	-8.820000
	224.049815	1588.271583	25.334000	-8.790000
	224.149820	1588.271583	25.330000	-8.800000
	224.249826	1588.275742	25.318000	-8.770000
	224.299829	1588.270198	25.328000	-8.840000
	224.449838	1588.274356	25.346000	-8.770000
	224.549843	1588.272970	25.316000	-8.810000
	224.649849	1588.270198	25.306000	-8.820000
	224.749855	1588.275742	25.330000	-8.760000
	224.849860	1588.271584	25.316000	-8.830000
	224.949866	1588.271584	25.346000	-8.800000
	225.049872	1588.267426	25.338000	-8.830000
	225.199881	1588.263268	25.334000	-8.830000
	225.299886	1588.268812	25.328000	-8.760000
	225.399892	1588.274356	25.314000	-8.760000
	225.499897	1588.270198	25.332000	-8.830000
	225.599903	1588.267426	25.308000	-8.820000
	225.699909	1588.266040	25.330000	-8.810000
	225.799915	1588.271584	25.324000	-8.760000
	225.949924	1588.272970	25.326000	-8.790000
	226.049929	1588.267426	25.318000	-8.840000
	226.149935	1588.267426	25.318000	-8.840000
	226.249940	1588.264654	25.310000	-8.820000
	226.349946	1588.263268	25.318000	-8.810000
	226.449952	1588.264654	25.316000	-8.790000
	226.549958	1588.266040	25.328000	-8.790000
	226.649963	1588.266040	25.304000	-8.800000
	226.749969	1588.268812	25.340000	-8.780000
	226.849975	1588.268812	25.348000	-8.800000
	226.949981	1588.264654	25.310000	-8.830000
	227.049986	1588.268812	25.314000	-8.770000
	227.149992	1588.263268	25.322000	-8.840000
	227.249998	1588.270199	25.338000	-8.750000
	227.350003	1588.268813	25.334000	-8.810000
	227.457009	1588.271585	25.326000	-8.780000
	227.550015	1588.263269	25.330000	-8.860000
	227.650021	1588.263269	25.350000	-8.800000
	227.750026	1588.259111	25.320000	-8.830000
	227.850032	1588.260497	25.340000	-8.790000
	227.950037	1588.260497	25.340000	-8.790000
	228.050044	1588.264655	25.316000	-8.770000
	228.150049	1588.266041	25.352000	-8.790000
	228.250055	1588.268813	25.304000	-8.780000
	228.350060	1588.267427	25.342000	-8.810000
	228.450066	1588.272971	25.330000	-8.760000
	228.550072	1588.284060	25.348000	-8.720000
	228.650078	1588.288218	25.298000	-8.770000
	228.750083	1588.290990	25.334000	-8.780000
	228.850089	1588.295148	25.320000	-8.770000
	228.950095	1588.296534	25.326000	-8.790000
	229.054101	1588.284060	25.300000	-8.890000
	229.150106	1588.290991	25.308000	-8.750000
	229.250112	1588.300693	25.310000	-8.730000
	229.350118	1588.300693	25.332000	-8.800000
	229.450123	1588.300693	25.334000	-8.800000
	229.550129	1588.296535	25.332000	-8.830000
	229.650135	1588.296535	25.332000	-8.830000
	229.750141	1588.297921	25.332000	-8.790000
	229.850146	1588.286833	25.314000	-8.880000
	229.950152	1588.290991	25.366000	-8.770000
	230.050158	1588.290991	25.326000	-8.800000
	230.150164	1588.288219	25.334000	-8.820000
	230.250169	1588.284061	25.338000	-8.830000
	230.350175	1588.281289	25.346000	-8.820000
	230.450181	1588.279903	25.326000	-8.810000
	230.554187	1588.274359	25.324000	-8.840000
	230.650192	1588.270201	25.344000	-8.830000
	230.750198	1588.270201	25.314000	-8.800000
	230.850204	1588.268815	25.344000	-8.810000
	230.950209	1588.266043	25.314000	-8.820000
	231.050215	1588.272973	25.318000	-8.750000
	231.150221	1588.279904	25.314000	-8.750000
	231.250226	1588.274360	25.304000	-8.840000
	231.350232	1588.274360	25.304000	-8.840000
	231.450238	1588.274360	25.344000	-8.800000
	231.550244	1588.278518	25.300000	-8.770000
	231.650249	1588.277132	25.324000	-8.810000
	231.750255	1588.279904	25.328000	-8.780000
	231.850261	1588.274360	25.330000	-8.840000
	231.950266	1588.274360	25.332000	-8.800000
	232.050272	1588.279904	25.332000	-8.760000
	232.154278	1588.281290	25.332000	-8.790000
	232.250284	1588.289606	25.324000	-8.740000
	232.350289	1588.292379	25.302000	-8.780000
	232.450295	1588.292379	25.322000	-8.800000
	232.550301	1588.295151	25.342000	-8.780000
	232.650307	1588.296537	25.326000	-8.790000
	232.750312	1588.292379	25.330000	-8.830000
	232.850318	1588.292379	25.334000	-8.800000
	232.950324	1588.292379	25.334000	-8.800000
	233.050330	1588.295151	25.308000	-8.780000
	233.150335	1588.288221	25.314000	-8.850000
	233.250341	1588.286835	25.334000	-8.810000
	233.350347	1588.284063	25.328000	-8.820000
	233.450352	1588.281290	25.308000	-8.820000
	233.550358	1588.285449	25.350000	-8.770000
	233.650364	1588.281291	25.318000	-8.830000
	233.750370	1588.282677	25.304000	-8.790000
	233.856376	1588.281291	25.328000	-8.810000
	233.950381	1588.281291	25.306000	-8.800000
	234.050387	1588.275747	25.308000	-8.840000
	234.150393	1588.274361	25.350000	-8.810000
	234.250398	1588.281291	25.312000	-8.750000
	234.350404	1588.277133	25.310000	-8.830000
	234.450409	1588.279905	25.316000	-8.780000
	234.600418	1588.286835	25.326000	-8.750000
	234.700424	1588.288221	25.326000	-8.790000
	234.800430	1588.282677	25.332000	-8.840000
	234.900435	1588.288221	25.306000	-8.760000
	235.000441	1588.290994	25.316000	-8.780000
	235.104447	1588.292380	25.356000	-8.790000
	235.200452	1588.292380	25.356000	-8.790000
	235.300458	1588.284063	25.320000	-8.860000
	235.400464	1588.284063	25.316000	-8.800000
	235.500470	1588.286836	25.318000	-8.780000
	235.600475	1588.284064	25.316000	-8.820000
	235.700481	1588.272976	25.306000	-8.880000
	235.800487	1588.277134	25.334000	-8.770000
	235.900493	1588.281292	25.308000	-8.770000
	236.000498	1588.284064	25.352000	-8.780000
	236.102504	1588.279906	25.330000	-8.830000
	236.200510	1588.284064	25.318000	-8.770000
	236.300515	1588.281292	25.330000	-8.820000
	236.400521	1588.277134	25.326000	-8.830000
	236.500527	1588.274362	25.338000	-8.820000
	236.600533	1588.279906	25.310000	-8.760000
	236.700538	1588.284064	25.318000	-8.770000
	236.799544	1588.284064	25.320000	-8.800000
	236.949553	1588.286836	25.326000	-8.780000
	237.049558	1588.288222	25.326000	-8.790000
	237.149564	1588.296539	25.344000	-8.740000
	237.249570	1588.299311	25.330000	-8.780000
	237.349576	1588.299311	25.330000	-8.780000
	237.449581	1588.297925	25.308000	-8.810000
	237.549587	1588.293767	25.320000	-8.830000
	237.650593	1588.293767	25.312000	-8.800000
	237.749599	1588.289609	25.338000	-8.830000
	237.849604	1588.285451	25.302000	-8.830000
	237.949610	1588.282679	25.318000	-8.820000
	238.049615	1588.279907	25.326000	-8.820000
	238.149621	1588.277135	25.330000	-8.820000
	238.249627	1588.272977	25.332000	-8.830000
	238.349633	1588.270205	25.310000	-8.820000
	238.456639	1588.268819	25.284000	-8.810000
	238.549644	1588.277135	25.306000	-8.740000
	238.649650	1588.277135	25.324000	-8.800000
	238.749656	1588.281293	25.332000	-8.770000
	238.849661	1588.278521	25.328000	-8.820000
	238.949667	1588.278521	25.328000	-8.820000
	239.049673	1588.279907	25.326000	-8.790000
	239.149678	1588.282679	25.338000	-8.780000
	239.249684	1588.277135	25.326000	-8.840000
	239.349690	1588.281293	25.322000	-8.770000
	239.449696	1588.278521	25.326000	-8.820000
	239.549701	1588.279907	25.318000	-8.790000
	239.649707	1588.282679	25.322000	-8.780000
	239.749713	1588.282679	25.332000	-8.800000
	239.849719	1588.286837	25.316000	-8.770000
	239.955724	1588.286837	25.326000	-8.800000
	240.049730	1588.284065	25.330000	-8.820000
	240.149735	1588.281293	25.320000	-8.820000
	240.249741	1588.281293	25.324000	-8.800000
	240.349747	1588.277135	25.328000	-8.830000
	240.449753	1588.281293	25.310000	-8.770000
	240.549758	1588.288224	25.328000	-8.750000
	240.649764	1588.290996	25.316000	-8.780000
	240.799773	1588.290996	25.316000	-8.780000
	240.899778	1588.286838	25.290000	-8.830000
	240.999784	1588.293768	25.314000	-8.750000
	241.099790	1588.295154	25.296000	-8.790000
	241.199796	1588.293768	25.340000	-8.810000
	241.299801	1588.293768	25.312000	-8.800000
	241.399807	1588.286838	25.320000	-8.850000
	241.499813	1588.288224	25.310000	-8.790000
	241.599819	1588.288224	25.318000	-8.800000
	241.699824	1588.288224	25.316000	-8.800000
	241.799830	1588.293768	25.316000	-8.760000
	241.899836	1588.289610	25.302000	-8.830000
	241.999841	1588.286838	25.308000	-8.820000
	242.099847	1588.290996	25.308000	-8.770000
	242.199853	1588.290996	25.312000	-8.800000
	242.299859	1588.295155	25.328000	-8.770000
	242.349862	1588.299313	25.318000	-8.770000
	242.499870	1588.300699	25.324000	-8.790000
	242.599876	1588.300699	25.324000	-8.790000
	242.699882	1588.300699	25.326000	-8.800000
	242.799887	1588.296541	25.310000	-8.830000
	242.899893	1588.293769	25.320000	-8.820000
	242.999898	1588.299313	25.324000	-8.760000
	243.099905	1588.299313	25.320000	-8.800000
	243.199910	1588.304857	25.320000	-8.760000
	243.299916	1588.304857	25.306000	-8.800000
	243.399921	1588.307629	25.332000	-8.780000
	243.499927	1588.307629	25.316000	-8.800000
	243.599933	1588.309016	25.304000	-8.790000
	243.699939	1588.299313	25.324000	-8.870000
	243.799944	1588.293769	25.322000	-8.840000
	243.899950	1588.299314	25.322000	-8.760000
	244.000956	1588.303472	25.324000	-8.770000
	244.099961	1588.297928	25.328000	-8.840000
	244.199967	1588.303472	25.326000	-8.760000
	244.299973	1588.303472	25.326000	-8.760000
	244.399979	1588.302086	25.332000	-8.810000
	244.499984	1588.303472	25.302000	-8.790000
	244.599990	1588.307630	25.332000	-8.770000
	244.699996	1588.309016	25.306000	-8.790000
	244.800002	1588.311788	25.316000	-8.780000
	244.900007	1588.304858	25.332000	-8.850000
	245.000013	1588.299314	25.362000	-8.840000
	245.100019	1588.306245	25.326000	-8.750000
	245.200025	1588.303472	25.308000	-8.820000
	245.300030	1588.309017	25.320000	-8.760000
	245.400036	1588.307631	25.334000	-8.810000
	245.500041	1588.303473	25.304000	-8.830000
	245.602047	1588.300700	25.322000	-8.820000
	245.700053	1588.299314	25.314000	-8.810000
	245.800059	1588.299314	25.322000	-8.800000
	245.900064	1588.300700	25.304000	-8.790000
	246.000070	1588.293770	25.290000	-8.850000
	246.100076	1588.303473	25.312000	-8.730000
	246.200082	1588.299315	25.312000	-8.830000
	246.300087	1588.297929	25.320000	-8.810000
	246.400093	1588.299315	25.314000	-8.790000
	246.500099	1588.296543	25.316000	-8.820000
	246.650107	1588.302087	25.338000	-8.760000
	246.750113	1588.300701	25.332000	-8.810000
	246.850119	1588.300701	25.324000	-8.800000
	246.950125	1588.297929	25.336000	-8.820000
	247.050130	1588.293771	25.320000	-8.830000
	247.150136	1588.296543	25.312000	-8.780000
	247.250142	1588.296543	25.332000	-8.800000
	247.400150	1588.296543	25.332000	-8.800000
	247.500156	1588.297929	25.314000	-8.790000
	247.600162	1588.306246	25.322000	-8.740000
	247.700167	1588.299315	25.294000	-8.850000
	247.800173	1588.300701	25.310000	-8.790000
	247.900179	1588.307632	25.302000	-8.750000
	248.000185	1588.307632	25.312000	-8.800000
	248.100190	1588.304860	25.340000	-8.820000
	248.200196	1588.310404	25.322000	-8.760000
	248.300202	1588.314562	25.330000	-8.770000
	248.400208	1588.309018	25.304000	-8.840000
	248.500213	1588.309018	25.316000	-8.800000
	248.600219	1588.311790	25.280000	-8.780000
	248.700224	1588.304860	25.330000	-8.850000
	248.800231	1588.303474	25.338000	-8.810000
	248.900236	1588.299316	25.326000	-8.830000
	249.000242	1588.297930	25.352000	-8.810000
	249.050245	1588.293772	25.326000	-8.830000
	249.200253	1588.293772	25.326000	-8.830000
	249.300259	1588.296544	25.320000	-8.780000
	249.400265	1588.291000	25.340000	-8.840000
	249.500270	1588.292386	25.308000	-8.790000
	249.600276	1588.295158	25.328000	-8.780000
	249.700282	1588.293772	25.332000	-8.810000
	249.800288	1588.291000	25.330000	-8.820000
	249.900293	1588.293772	25.334000	-8.780000
	250.000299	1588.295158	25.326000	-8.790000
	250.100305	1588.291000	25.318000	-8.830000
	250.200310	1588.289614	25.320000	-8.810000
	250.300316	1588.291000	25.292000	-8.790000
	250.400322	1588.293772	25.344000	-8.780000
	250.500328	1588.293772	25.320000	-8.800000
	250.601333	1588.296544	25.310000	-8.780000
	250.700339	1588.300702	25.308000	-8.770000
	250.800345	1588.300702	25.320000	-8.800000
	250.900351	1588.300702	25.320000	-8.800000
	251.000356	1588.299316	25.306000	-8.810000
	251.100362	1588.306247	25.318000	-8.750000
	251.200367	1588.311791	25.324000	-8.760000
	251.300373	1588.310405	25.338000	-8.810000
	251.400379	1588.306247	25.282000	-8.830000
	251.500385	1588.309019	25.322000	-8.780000
	251.600390	1588.311791	25.338000	-8.780000
	251.700396	1588.311791	25.314000	-8.800000
	251.800402	1588.311791	25.320000	-8.800000
	251.900408	1588.313177	25.326000	-8.790000
	252.000413	1588.310405	25.324000	-8.820000
	252.100419	1588.307633	25.316000	-8.820000
	252.206425	1588.297931	25.340000	-8.870000
	252.300430	1588.297931	25.326000	-8.800000
	252.400436	1588.296545	25.318000	-8.810000
	252.500442	1588.296545	25.326000	-8.800000
	252.600448	1588.296545	25.310000	-8.800000
	252.700453	1588.296545	25.310000	-8.800000
	252.800459	1588.296545	25.354000	-8.800000
	252.900465	1588.296545	25.304000	-8.800000
	253.000471	1588.306248	25.328000	-8.730000
	253.100476	1588.314564	25.294000	-8.740000
	253.200482	1588.309020	25.340000	-8.840000
	253.301488	1588.307634	25.334000	-8.810000
	253.400494	1588.302090	25.316000	-8.840000
	253.500499	1588.304862	25.336000	-8.780000
	253.600505	1588.300704	25.324000	-8.830000
	253.701510	1588.300704	25.334000	-8.800000
	253.807517	1588.300704	25.330000	-8.800000
	253.900522	1588.300704	25.316000	-8.800000
	253.950525	1588.300704	25.316000	-8.800000
	254.100533	1588.306248	25.324000	-8.760000
	254.211540	1588.304862	25.310000	-8.810000
	254.299545	1588.299318	25.322000	-8.840000
	254.399550	1588.291002	25.314000	-8.860000
	254.499557	1588.291002	25.324000	-8.800000
	254.599562	1588.295160	25.326000	-8.770000
	254.699568	1588.291002	25.332000	-8.830000
	254.803574	1588.299318	25.324000	-8.740000
	254.899579	1588.293774	25.346000	-8.840000
	254.999585	1588.295160	25.316000	-8.790000
	255.099591	1588.296546	25.324000	-8.790000
	255.199596	1588.296546	25.320000	-8.800000
	255.299602	1588.299319	25.328000	-8.780000
	255.399608	1588.302091	25.336000	-8.780000
	255.499613	1588.296547	25.342000	-8.840000
	255.599619	1588.296547	25.342000	-8.800000
	255.749628	1588.296547	25.342000	-8.800000
	255.849634	1588.296547	25.314000	-8.800000
	255.949639	1588.296547	25.326000	-8.800000
	256.049645	1588.300705	25.326000	-8.770000
	256.149651	1588.293775	25.324000	-8.850000
	256.249656	1588.288231	25.310000	-8.840000
	256.349662	1588.285459	25.322000	-8.820000
	256.449668	1588.284072	25.322000	-8.810000
	256.549674	1588.286845	25.330000	-8.780000
	256.649679	1588.291003	25.324000	-8.770000
	256.749685	1588.292389	25.338000	-8.790000
	256.849691	1588.286845	25.304000	-8.840000
	256.949697	1588.282687	25.334000	-8.830000
	257.049702	1588.284073	25.324000	-8.790000
	257.149708	1588.293775	25.326000	-8.730000
	257.199711	1588.288231	25.304000	-8.840000
	257.349720	1588.288231	25.308000	-8.800000
	257.449725	1588.288231	25.308000	-8.800000
	257.549731	1588.293775	25.334000	-8.760000
	257.649736	1588.300706	25.330000	-8.750000
	257.749742	1588.306250	25.326000	-8.760000
	257.849748	1588.309022	25.314000	-8.780000
	257.949754	1588.311794	25.338000	-8.780000
	258.049759	1588.311794	25.346000	-8.800000
	258.149765	1588.309022	25.310000	-8.820000
	258.249771	1588.310408	25.338000	-8.790000
	258.349777	1588.320111	25.336000	-8.730000
	258.449782	1588.317339	25.314000	-8.820000
	258.549788	1588.309023	25.340000	-8.860000
	258.649794	1588.307637	25.332000	-8.810000
	258.749799	1588.313181	25.328000	-8.760000
	258.853806	1588.313181	25.286000	-8.800000
	258.949811	1588.314567	25.320000	-8.790000
	259.049817	1588.314567	25.320000	-8.790000
	259.149822	1588.309023	25.348000	-8.840000
	259.249828	1588.311795	25.330000	-8.780000
	259.349833	1588.309023	25.346000	-8.820000
	259.449840	1588.306251	25.320000	-8.820000
	259.549845	1588.302093	25.340000	-8.830000
	259.649851	1588.296549	25.334000	-8.840000
	259.749856	1588.296549	25.352000	-8.800000
	259.849862	1588.288233	25.332000	-8.860000
	259.949868	1588.285461	25.342000	-8.820000
	260.049874	1588.286847	25.324000	-8.790000
	260.149879	1588.292391	25.332000	-8.760000
	260.249885	1588.291005	25.322000	-8.810000
	260.349891	1588.293777	25.346000	-8.780000
	260.449897	1588.289619	25.322000	-8.830000
	260.555902	1588.289619	25.328000	-8.800000
	260.649908	1588.289619	25.314000	-8.800000
	260.749914	1588.288233	25.300000	-8.810000
	260.849919	1588.288233	25.300000	-8.810000
	260.949925	1588.291005	25.328000	-8.780000
	261.049931	1588.292391	25.312000	-8.790000
	261.149937	1588.293777	25.336000	-8.790000
	261.249942	1588.292391	25.314000	-8.810000
	261.349948	1588.293777	25.326000	-8.790000
	261.449954	1588.281303	25.352000	-8.890000
	261.549960	1588.285461	25.314000	-8.770000
	261.649965	1588.289619	25.318000	-8.770000
	261.749971	1588.288233	25.300000	-8.810000
	261.849977	1588.292392	25.308000	-8.770000
	261.949983	1588.292392	25.326000	-8.800000
	262.049988	1588.291006	25.356000	-8.810000
	262.151994	1588.286847	25.312000	-8.830000
	262.250000	1588.288234	25.312000	-8.790000
	262.350005	1588.288234	25.298000	-8.800000
	262.450011	1588.295164	25.344000	-8.750000
	262.550017	1588.295164	25.332000	-8.800000
	262.650023	1588.296550	25.312000	-8.790000
	262.750028	1588.297936	25.342000	-8.790000
	262.850034	1588.292392	25.326000	-8.840000
	262.950039	1588.292392	25.326000	-8.840000
	263.050045	1588.297936	25.332000	-8.760000
	263.150051	1588.299322	25.316000	-8.790000
	263.250057	1588.296550	25.314000	-8.820000
	263.350062	1588.291006	25.330000	-8.840000
	263.450068	1588.288234	25.356000	-8.820000
	263.550074	1588.293778	25.316000	-8.760000
	263.650080	1588.293778	25.330000	-8.800000
	263.750085	1588.300709	25.318000	-8.750000
	263.854091	1588.302095	25.336000	-8.790000
	263.950097	1588.311797	25.320000	-8.730000
	264.050103	1588.307639	25.322000	-8.830000
	264.150108	1588.302095	25.316000	-8.840000
	264.250114	1588.297937	25.316000	-8.830000
	264.350120	1588.297937	25.338000	-8.800000
	264.450125	1588.299323	25.334000	-8.790000
	264.550131	1588.303481	25.304000	-8.770000
	264.650137	1588.299323	25.312000	-8.830000
	264.801146	1588.293779	25.316000	-8.840000
	264.900151	1588.292393	25.330000	-8.810000
	265.000157	1588.291007	25.330000	-8.810000
	265.100163	1588.293779	25.328000	-8.780000
	265.200168	1588.297937	25.320000	-8.770000
	265.300174	1588.296551	25.318000	-8.810000
	265.400180	1588.303482	25.320000	-8.750000
	265.550189	1588.309026	25.320000	-8.760000
	265.650194	1588.307640	25.314000	-8.810000
	265.750200	1588.307640	25.314000	-8.810000
	265.850205	1588.313184	25.298000	-8.760000
	265.950211	1588.315956	25.302000	-8.780000
	266.050217	1588.315956	25.322000	-8.800000
	266.150223	1588.313184	25.324000	-8.820000
	266.250228	1588.306254	25.314000	-8.850000
	266.350234	1588.311798	25.320000	-8.760000
	266.450240	1588.310412	25.312000	-8.810000
	266.550246	1588.315957	25.336000	-8.760000
	266.650251	1588.311799	25.330000	-8.830000
	266.750257	1588.315957	25.322000	-8.770000
	266.850263	1588.320115	25.352000	-8.770000
	266.950268	1588.320115	25.316000	-8.800000
	267.050274	1588.314571	25.324000	-8.840000
	267.154280	1588.315957	25.328000	-8.790000
	267.250286	1588.320115	25.348000	-8.770000
	267.350291	1588.315957	25.320000	-8.830000
	267.450297	1588.313185	25.334000	-8.820000
	267.550303	1588.315957	25.318000	-8.780000
	267.650309	1588.311799	25.294000	-8.830000
	267.750314	1588.313185	25.330000	-8.790000
	267.850320	1588.307641	25.340000	-8.840000
	267.950325	1588.306255	25.326000	-8.810000
	268.100334	1588.300711	25.356000	-8.840000
	268.200340	1588.296553	25.320000	-8.830000
	268.300346	1588.297939	25.326000	-8.790000
	268.400352	1588.293781	25.316000	-8.830000
	268.500357	1588.292394	25.334000	-8.810000
	268.600363	1588.292394	25.334000	-8.810000
	268.700368	1588.284078	25.324000	-8.860000
	268.800375	1588.288237	25.326000	-8.770000
	268.900380	1588.284079	25.318000	-8.830000
	269.000386	1588.286851	25.330000	-8.780000
	269.100391	1588.288237	25.332000	-8.790000
	269.200397	1588.292395	25.326000	-8.770000
	269.300403	1588.297939	25.324000	-8.760000
	269.400409	1588.307642	25.330000	-8.730000
	269.500414	1588.307642	25.306000	-8.800000
	269.605420	1588.309028	25.316000	-8.790000
	269.700426	1588.303484	25.318000	-8.840000
	269.800432	1588.302098	25.324000	-8.810000
	269.900437	1588.304870	25.326000	-8.780000
	270.000443	1588.311800	25.322000	-8.750000
	270.100449	1588.307642	25.312000	-8.830000
	270.200454	1588.302098	25.294000	-8.840000
	270.300460	1588.300712	25.318000	-8.810000
	270.400466	1588.299326	25.330000	-8.810000
	270.500472	1588.299326	25.330000	-8.810000
	270.600477	1588.309029	25.312000	-8.730000
	270.700483	1588.313187	25.324000	-8.770000
	270.800489	1588.311801	25.322000	-8.810000
	270.900495	1588.313187	25.334000	-8.790000
	271.000500	1588.311801	25.324000	-8.810000
	271.100506	1588.309029	25.312000	-8.820000
	271.200511	1588.306257	25.318000	-8.820000
	271.307518	1588.307643	25.310000	-8.790000
	271.400523	1588.310415	25.324000	-8.780000
	271.500529	1588.318731	25.324000	-8.740000
	271.600534	1588.317345	25.310000	-8.810000
	271.700540	1588.314573	25.326000	-8.820000
	271.799546	1588.317345	25.318000	-8.780000
	271.899551	1588.321504	25.334000	-8.770000
	271.999557	1588.321504	25.334000	-8.770000
	272.099563	1588.318731	25.332000	-8.820000
	272.199569	1588.318731	25.308000	-8.800000
	272.299574	1588.314573	25.332000	-8.830000
	272.399580	1588.313187	25.306000	-8.810000
	272.499586	1588.314573	25.296000	-8.790000
	272.599592	1588.315959	25.296000	-8.790000
	272.699597	1588.313187	25.294000	-8.820000
	272.799603	1588.314573	25.322000	-8.790000
	272.905609	1588.321504	25.316000	-8.750000
	272.999614	1588.317346	25.328000	-8.830000
	273.099620	1588.321504	25.328000	-8.770000
	273.199626	1588.320118	25.324000	-8.810000
	273.299632	1588.310416	25.330000	-8.870000
	273.399637	1588.311802	25.312000	-8.790000
	273.499643	1588.310416	25.310000	-8.810000
	273.599649	1588.315960	25.332000	-8.760000
	273.749657	1588.314574	25.346000	-8.810000
	273.849663	1588.314574	25.304000	-8.800000
	273.949669	1588.324277	25.330000	-8.730000
	274.049675	1588.324277	25.330000	-8.730000
	274.149680	1588.317346	25.334000	-8.850000
	274.249686	1588.313188	25.344000	-8.830000
	274.349692	1588.318733	25.330000	-8.760000
	274.449697	1588.317347	25.314000	-8.810000
	274.549703	1588.313188	25.326000	-8.830000
	274.649709	1588.307644	25.334000	-8.840000
	274.749714	1588.313189	25.330000	-8.760000
	274.849720	1588.307644	25.328000	-8.840000
	274.949726	1588.310417	25.336000	-8.780000
	275.049732	1588.309031	25.338000	-8.810000
	275.149737	1588.317347	25.314000	-8.740000
	275.249743	1588.313189	25.314000	-8.830000
	275.354749	1588.307645	25.306000	-8.840000
	275.449755	1588.309031	25.322000	-8.790000
	275.549760	1588.310417	25.332000	-8.790000
	275.649766	1588.311803	25.308000	-8.790000
	275.749772	1588.310417	25.344000	-8.810000
	275.849778	1588.306259	25.330000	-8.830000
	275.949783	1588.307645	25.324000	-8.790000
	276.049789	1588.306259	25.342000	-8.810000
	276.199798	1588.307645	25.322000	-8.790000
	276.299803	1588.419963	25.750000	-7.990000
	276.399809	1588.381155	25.444000	-9.080000
	276.499815	1588.343734	25.480000	-9.070000
	276.599821	1588.318786	25.464000	-8.980000
	276.699826	1588.291067	25.480000	-9.000000
	276.799832	1588.270278	25.470000	-8.950000
	276.949841	1588.250874	25.456000	-8.940000
	277.049846	1588.239787	25.454000	-8.880000
	277.149852	1588.225927	25.442000	-8.900000
	277.249857	1588.213454	25.460000	-8.890000
	277.349864	1588.205138	25.476000	-8.860000
	277.449869	1588.205138	25.476000	-8.860000
	277.549875	1588.192665	25.460000	-8.890000
	277.649880	1588.191279	25.466000	-8.810000
	277.749886	1588.182963	25.458000	-8.860000
	277.849892	1588.184349	25.470000	-8.790000
	277.949898	1588.178806	25.468000	-8.840000
	278.049903	1588.177420	25.446000	-8.810000
	278.149909	1588.180192	25.474000	-8.780000
	278.249915	1588.177420	25.442000	-8.820000
	278.349921	1588.181578	25.440000	-8.770000
	278.451926	1588.180192	25.458000	-8.810000
	278.549932	1588.170490	25.460000	-8.870000
	278.649938	1588.173262	25.456000	-8.780000
	278.749943	1588.170490	25.448000	-8.820000
	278.849949	1588.164947	25.472000	-8.840000
	278.949955	1588.166333	25.472000	-8.790000
	279.049961	1588.169105	25.472000	-8.780000
	279.149966	1588.169105	25.472000	-8.780000
	279.249972	1588.162175	25.474000	-8.850000
	279.349977	1588.163561	25.480000	-8.790000
	279.449984	1588.162175	25.444000	-8.810000
	279.549989	1588.169105	25.452000	-8.750000
	279.649995	1588.173263	25.460000	-8.770000
	279.750000	1588.177421	25.464000	-8.770000
	279.850006	1588.176035	25.448000	-8.810000
	279.950012	1588.176035	25.464000	-8.800000
	280.050018	1588.171877	25.462000	-8.830000
	280.157024	1588.169105	25.464000	-8.820000
	280.250029	1588.166333	25.462000	-8.820000
	280.350035	1588.170491	25.454000	-8.770000
	280.450041	1588.169105	25.466000	-8.810000
	280.550046	1588.162176	25.482000	-8.850000
	280.650052	1588.163561	25.480000	-8.790000
	280.750058	1588.162176	25.462000	-8.810000
	280.900066	1588.166333	25.466000	-8.770000
	281.000072	1588.162176	25.460000	-8.830000
	281.100078	1588.162176	25.460000	-8.830000
	281.200084	1588.163562	25.454000	-8.790000
	281.300089	1588.163562	25.448000	-8.800000
	281.400095	1588.160790	25.456000	-8.820000
	281.500101	1588.158018	25.468000	-8.820000
	281.600106	1588.163562	25.470000	-8.760000
	281.700112	1588.167720	25.478000	-8.770000
	281.800118	1588.159404	25.452000	-8.860000
	281.900124	1588.167720	25.442000	-8.740000
	282.000129	1588.171878	25.474000	-8.770000
	282.100135	1588.171878	25.456000	-8.800000
	282.200140	1588.176036	25.444000	-8.770000
	282.300147	1588.178808	25.448000	-8.780000
	282.400152	1588.177422	25.460000	-8.810000
	282.505158	1588.173264	25.462000	-8.830000
	282.600163	1588.174650	25.438000	-8.790000
	282.700169	1588.174650	25.438000	-8.790000
	282.800175	1588.174650	25.450000	-8.800000
	282.900181	1588.177422	25.454000	-8.780000
	283.000186	1588.173264	25.474000	-8.830000
	283.100192	1588.173264	25.454000	-8.800000
	283.200198	1588.174650	25.466000	-8.790000
	283.300204	1588.180194	25.444000	-8.760000
	283.400209	1588.177422	25.476000	-8.820000
	283.500215	1588.178808	25.458000	-8.790000
	283.600221	1588.177422	25.458000	-8.810000
	283.700226	1588.174650	25.448000	-8.820000
	283.800232	1588.176036	25.478000	-8.790000
	283.900238	1588.178808	25.456000	-8.780000
	284.000244	1588.177422	25.482000	-8.810000
	284.100249	1588.176036	25.476000	-8.810000
	284.207255	1588.171878	25.456000	-8.830000
	284.300261	1588.177422	25.460000	-8.760000
	284.400267	1588.178808	25.462000	-8.790000
	284.505272	1588.178808	25.462000	-8.790000
	284.600278	1588.176036	25.454000	-8.820000
	284.700284	1588.166335	25.468000	-8.870000
	284.800290	1588.170493	25.458000	-8.770000
	284.900295	1588.176037	25.454000	-8.760000
	285.000301	1588.174651	25.468000	-8.810000
	285.100307	1588.178809	25.476000	-8.770000
	285.200312	1588.181580	25.466000	-8.780000
	285.300318	1588.174651	25.480000	-8.850000
	285.400324	1588.170493	25.456000	-8.830000
	285.500329	1588.178809	25.462000	-8.740000
	285.600335	1588.178809	25.462000	-8.800000
	285.700341	1588.184353	25.480000	-8.760000
	285.804347	1588.189897	25.460000	-8.760000
	285.900352	1588.187125	25.462000	-8.820000
	286.000358	1588.189897	25.476000	-8.780000
	286.100364	1588.191283	25.452000	-8.790000
	286.200369	1588.182967	25.472000	-8.860000
	286.300375	1588.182967	25.466000	-8.800000
	286.400381	1588.184353	25.480000	-8.790000
	286.500387	1588.182967	25.456000	-8.810000
	286.600392	1588.173266	25.466000	-8.870000
	286.750401	1588.174652	25.478000	-8.790000
	286.850407	1588.167722	25.454000	-8.850000
	286.950412	1588.166336	25.468000	-8.810000
	287.050418	1588.160793	25.454000	-8.840000
	287.150424	1588.166336	25.442000	-8.760000
	287.250430	1588.170494	25.454000	-8.770000
	287.350435	1588.166337	25.458000	-8.830000
	287.500444	1588.164951	25.476000	-8.810000
	287.600450	1588.160793	25.462000	-8.830000
	287.700455	1588.171881	25.458000	-8.720000
	287.800461	1588.171881	25.458000	-8.720000
	287.902467	1588.171881	25.448000	-8.800000
	288.000473	1588.170495	25.456000	-8.810000
	288.100478	1588.178811	25.440000	-8.740000
	288.200484	1588.174653	25.464000	-8.830000
	288.300489	1588.178811	25.458000	-8.770000
	288.400496	1588.176039	25.468000	-8.820000
	288.500501	1588.174653	25.456000	-8.810000
	288.600507	1588.174653	25.444000	-8.800000
	288.700512	1588.174653	25.456000	-8.800000
	288.800518	1588.171881	25.444000	-8.820000
	288.900524	1588.174653	25.482000	-8.780000
	289.004530	1588.176039	25.448000	-8.790000
	289.100535	1588.176039	25.454000	-8.800000
	289.200541	1588.170495	25.462000	-8.840000
	289.299547	1588.174653	25.456000	-8.770000
	289.399552	1588.174653	25.456000	-8.770000
	289.499558	1588.176039	25.472000	-8.790000
	289.599564	1588.173267	25.482000	-8.820000
	289.699570	1588.164952	25.498000	-8.860000
	289.799575	1588.164952	25.470000	-8.800000
	289.899581	1588.167724	25.462000	-8.780000
	290.001587	1588.151093	25.432000	-8.920000
	290.099593	1588.152479	25.454000	-8.790000
	290.199598	1588.155251	25.442000	-8.780000
	290.299604	1588.153865	25.462000	-8.810000
	290.399610	1588.164953	25.478000	-8.720000
	290.501616	1588.386915	25.180000	-7.200000
	290.615622	1588.361967	25.184000	-8.980000
	290.699627	1588.471514	26.012000	-8.010000
	290.799633	1588.004512	24.066000	-12.170000
	290.899638	1588.173694	24.920000	-7.580000
	290.999644	1588.194485	25.416000	-8.650000
	291.149652	1588.184783	25.444000	-8.870000
	291.249658	1588.204188	25.376000	-8.660000
	291.351664	1588.186171	25.584000	-8.930000
	291.449670	1588.170927	25.402000	-8.910000
	291.599679	1588.173698	25.528000	-8.780000
	291.699684	1588.161225	25.494000	-8.890000
	291.799690	1588.144595	25.542000	-8.920000
	291.899695	1588.173702	25.606000	-8.590000
	292.049704	1588.173702	25.606000	-8.590000
	292.149710	1588.122427	25.640000	-9.040000
	292.249715	1588.122427	25.640000	-9.040000
	292.350721	1588.091940	25.680000	-9.020000
	292.449727	1588.057297	25.618000	-9.050000
	292.549733	1588.055911	25.692000	-8.810000
	292.649738	1588.000486	25.736000	-9.200000
	292.749744	1587.993557	25.732000	-8.850000
	292.850750	1587.989400	25.724000	-8.830000
	292.962756	1587.954759	25.736000	-9.050000
	293.049761	1587.985249	25.684000	-8.580000
	293.149767	1587.886884	25.668000	-9.510000
	293.249773	1587.939550	25.626000	-8.420000
	293.399781	1587.964495	26.446000	-8.620000
	293.499787	1588.015777	25.690000	-8.430000
	293.599792	1587.928492	26.320000	-9.430000
	293.699799	1587.914635	26.380000	-8.900000
	293.799804	1588.035247	25.762000	-7.930000
	293.949813	1587.881476	25.892000	-9.910000
	294.049819	1587.931370	25.918000	-8.440000
	294.149824	1587.880105	25.876000	-9.170000
	294.250830	1587.878720	26.086000	-8.810000
	294.349835	1587.914752	25.824000	-8.540000
	294.499844	1587.995146	25.968000	-8.220000
	294.600850	1588.011777	26.002000	-8.680000
	294.704856	1587.963280	25.914000	-9.150000
	294.799861	1587.988226	25.996000	-8.620000
	294.949870	1588.011786	25.994000	-8.630000
	295.049876	1588.031189	26.012000	-8.660000
	295.149881	1588.050591	26.000000	-8.660000
	295.249887	1588.093559	25.998000	-8.490000
	295.399896	1588.106032	26.014000	-8.710000
	295.499901	1588.125435	26.002000	-8.660000
	295.601907	1588.146225	25.978000	-8.650000
	295.699913	1588.146225	25.978000	-8.650000
	295.799919	1588.150383	26.010000	-8.770000
	295.899924	1588.169787	25.994000	-8.660000
	295.999930	1587.923202	26.180000	-10.580000
	296.099936	1587.980028	25.994000	-8.390000
	296.199942	1588.022993	25.998000	-8.490000
	296.299947	1588.068732	25.996000	-8.470000
	296.399953	1588.108927	26.002000	-8.510000
	296.499959	1588.143578	25.984000	-8.550000
	296.599964	1588.168527	26.008000	-8.620000
	296.704970	1588.181001	25.990000	-8.710000
	296.799976	1588.199019	26.012000	-8.670000
	296.899981	1588.210107	25.982000	-8.720000
	296.999987	1588.228126	25.998000	-8.670000
	297.099993	1588.243373	25.992000	-8.690000
	297.199998	1588.254461	25.994000	-8.720000
	297.300004	1588.257233	26.002000	-8.780000
	297.400010	1588.261391	25.974000	-8.770000
	297.500016	1588.272480	26.002000	-8.720000
	297.650024	1588.276638	25.988000	-8.770000
	297.750030	1588.286341	25.994000	-8.730000
	297.850036	1588.296043	25.998000	-8.730000
	297.950041	1588.307132	25.998000	-8.720000
	298.050047	1588.318221	25.998000	-8.720000
	298.150053	1588.323765	26.002000	-8.760000
	298.300062	1588.327924	25.990000	-8.770000
	298.400067	1588.330696	26.008000	-8.780000
	298.500073	1588.340399	25.998000	-8.730000
	298.600079	1588.345943	25.974000	-8.760000
	298.700084	1588.341785	25.996000	-8.830000
	298.800090	1588.351488	26.034000	-8.730000
	298.900096	1588.358418	25.958000	-8.750000
	299.000102	1588.358418	25.958000	-8.750000
	299.100107	1588.361191	25.988000	-8.780000
	299.200113	1588.357032	25.996000	-8.830000
	299.300119	1588.355646	25.976000	-8.810000
	299.400125	1588.357032	25.978000	-8.790000
	299.500130	1588.361191	26.008000	-8.770000
	299.600136	1588.365349	26.006000	-8.770000
	299.700141	1588.369507	25.972000	-8.770000
	299.800148	1588.381983	25.996000	-8.710000
	299.903153	1588.386141	26.030000	-8.770000
	300.000159	1588.394458	25.994000	-8.740000
	300.100164	1588.391686	26.004000	-8.820000
	300.200170	1588.388914	26.010000	-8.820000
	300.300176	1588.391686	25.988000	-8.780000
	300.400182	1588.387528	26.002000	-8.830000
	300.500187	1588.387528	26.006000	-8.800000
	300.600193	1588.387528	26.006000	-8.800000
	300.700199	1588.387528	26.022000	-8.800000
	300.800204	1588.384756	26.014000	-8.820000
	300.900210	1588.391686	25.990000	-8.750000
	301.000216	1588.388914	25.970000	-8.820000
	301.100222	1588.390300	26.006000	-8.790000
	301.200227	1588.398617	25.992000	-8.740000
	301.300233	1588.400003	25.992000	-8.790000
	301.400239	1588.398617	26.024000	-8.810000
	301.500245	1588.408321	25.990000	-8.730000
	301.605251	1588.415252	26.008000	-8.750000
	301.700256	1588.422182	25.970000	-8.750000
	301.800261	1588.429113	25.996000	-8.750000
	301.900268	1588.436044	26.012000	-8.750000
	302.000273	1588.442975	25.986000	-8.750000
	302.100279	1588.452679	25.998000	-8.730000
	302.200284	1588.454065	25.996000	-8.790000
	302.300290	1588.455451	25.992000	-8.790000
	302.450299	1588.455451	25.992000	-8.790000
	302.550304	1588.451293	25.984000	-8.830000
	302.650311	1588.448520	26.004000	-8.820000
	302.750316	1588.455452	26.002000	-8.750000
	302.850322	1588.456838	26.004000	-8.790000
	302.950327	1588.458224	25.974000	-8.790000
	303.050333	1588.448521	25.982000	-8.870000
	303.150339	1588.454066	25.992000	-8.760000
	303.250345	1588.447135	26.014000	-8.850000
	303.350350	1588.434660	26.418000	-8.890000
	303.450356	1588.492891	28.484000	-8.380000
	303.550362	1588.337690	26.176000	-9.920000
	303.650368	1588.479149	23.980000	-7.780000
	303.750373	1588.461129	25.880000	-8.930000
	303.850379	1588.447268	25.952000	-8.900000
	303.900382	1587.742801	24.640000	-13.880000
	304.050390	1587.428425	26.688000	-11.070000
	304.150396	1587.428425	26.688000	-11.070000
	304.250402	1587.572576	26.948000	-7.760000
	304.350408	1587.870861	26.982000	-6.650000
	304.450413	1588.392088	26.718000	-5.050000
	304.550419	1588.639091	26.698000	-7.020000
	304.650425	1588.555929	26.588000	-9.400000
	304.750431	1588.639130	27.050000	-8.200000
	304.850436	1588.763961	27.264000	-7.900000
	304.950442	1588.739007	27.494000	-8.980000
	305.050447	1588.780606	28.082000	-8.500000
	305.151453	1589.349656	26.406000	-4.710000
	305.250459	1590.281692	25.592000	-2.130000
	305.350465	1591.317765	26.404000	-1.400000
	305.450470	1591.939586	26.008000	-4.340000
	305.550476	1593.185205	23.044000	0.060000
	305.650482	1594.770352	27.416000	2.400000
	305.750488	1594.720258	27.744000	-9.160000
	305.850493	1594.710516	27.354000	-8.870000
	305.950499	1594.525501	27.144000	-10.130000
	306.100508	1593.479327	27.596000	-16.300000
	306.200513	1593.205512	27.036000	-10.770000
	306.300519	1592.165824	28.410000	-16.260000
	306.400525	1591.518239	28.964000	-13.460000
	306.500531	1591.518239	28.964000	-13.460000
	306.600536	1590.912677	28.262000	-13.160000
	306.700542	1590.460236	27.884000	-12.060000
	306.799548	1590.014865	28.304000	-12.010000
	306.899553	1589.658426	28.290000	-11.370000
	306.999559	1589.360309	28.310000	-10.950000
	307.099565	1589.121856	28.314000	-10.520000
	307.199571	1588.918087	28.334000	-10.270000
	307.299576	1588.762844	28.344000	-9.920000
	307.399582	1588.628402	28.314000	-9.770000
	307.499588	1588.525840	28.336000	-9.540000
	307.599594	1588.434370	28.300000	-9.460000
	307.704599	1588.363689	28.318000	-9.310000
	307.799605	1588.299940	28.328000	-9.260000
	307.899611	1588.250049	28.338000	-9.160000
	307.999616	1588.211245	28.312000	-9.080000
	308.099622	1588.173828	28.336000	-9.070000
	308.199628	1588.148883	28.326000	-8.980000
	308.299634	1588.121167	28.348000	-9.000000
	308.399639	1588.103151	28.354000	-8.930000
	308.549648	1588.083750	28.320000	-8.940000
	308.649653	1588.079592	28.342000	-8.830000
	308.749659	1588.072663	28.358000	-8.850000
	308.849665	1588.068506	28.340000	-8.830000
	308.949671	1588.062962	28.346000	-8.840000
	309.049676	1588.062962	28.350000	-8.800000
	309.149682	1588.056033	28.344000	-8.850000
	309.249688	1588.054647	28.338000	-8.810000
	309.399696	1588.056033	28.332000	-8.790000
	309.499702	1588.051876	28.334000	-8.830000
	309.599708	1588.046333	28.330000	-8.840000
	309.699714	1588.044947	28.324000	-8.810000
	309.799719	1588.039404	28.340000	-8.840000
	309.899725	1588.039404	28.340000	-8.840000
	309.999731	1588.050491	28.376000	-8.720000
	310.099736	1588.047719	28.336000	-8.820000
	310.199742	1588.039404	28.320000	-8.860000
	310.299748	1588.043562	28.314000	-8.770000
	310.399754	1588.044947	28.338000	-8.790000
	310.499759	1588.044947	28.340000	-8.800000
	310.599765	1588.042176	28.324000	-8.820000
	310.699771	1588.046333	28.318000	-8.770000
	310.799777	1588.042176	28.326000	-8.830000
	310.904782	1588.043562	28.326000	-8.790000
	310.999788	1588.046333	28.318000	-8.780000
	311.099793	1588.047719	28.322000	-8.790000
	311.199800	1588.050491	28.340000	-8.780000
	311.299805	1588.047719	28.314000	-8.820000
	311.399811	1588.049105	28.328000	-8.790000
	311.499816	1588.043562	28.342000	-8.840000
	311.599822	1588.040790	28.318000	-8.820000
	311.699828	1588.040790	28.318000	-8.820000
	311.799834	1588.036633	28.328000	-8.830000
	311.899839	1588.040790	28.346000	-8.770000
	311.999845	1588.043562	28.318000	-8.780000
	312.099851	1588.044948	28.330000	-8.790000
	312.199857	1588.043562	28.348000	-8.810000
	312.299862	1588.049106	28.338000	-8.760000
	312.399868	1588.044948	28.348000	-8.830000
	312.501874	1588.046334	28.316000	-8.790000
	312.599879	1588.053263	28.364000	-8.750000
	312.699885	1588.047720	28.338000	-8.840000
	312.799891	1588.046334	28.332000	-8.810000
	312.899897	1588.036634	28.332000	-8.870000
	312.999902	1588.043563	28.322000	-8.750000
	313.099908	1588.042177	28.346000	-8.810000
	313.199914	1588.036634	28.314000	-8.840000
	313.349922	1588.038020	28.324000	-8.790000
	313.449928	1588.038020	28.324000	-8.790000
	313.549934	1588.036634	28.326000	-8.810000
	313.649940	1588.033862	28.344000	-8.820000
	313.749945	1588.038020	28.334000	-8.770000
	313.849951	1588.038020	28.350000	-8.800000
	313.949957	1588.035248	28.328000	-8.820000
	314.049963	1588.032476	28.336000	-8.820000
	314.149968	1588.031091	28.314000	-8.810000
	314.249974	1588.036634	28.340000	-8.760000
	314.349979	1588.039406	28.308000	-8.780000
	314.449986	1588.036634	28.334000	-8.820000
	314.549991	1588.040792	28.328000	-8.770000
	314.649997	1588.046335	28.358000	-8.760000
	314.750002	1588.046335	28.340000	-8.800000
	314.855009	1588.042178	28.326000	-8.830000
	314.950014	1588.044949	28.340000	-8.780000
	315.050020	1588.043563	28.334000	-8.810000
	315.150025	1588.040792	28.332000	-8.820000
	315.250031	1588.031091	28.344000	-8.870000
	315.350037	1588.031091	28.344000	-8.870000
	315.451043	1588.028320	28.338000	-8.820000
