LabVIEW Measurement	
Writer_Version	2
Reader_Version	2
Separator	Tab
Decimal_Separator	.
Multi_Headings	No
X_Columns	No
Time_Pref	Relative
Operator	Herve
Date	2023/08/02
Time	16:09:24.6377115249633789062
***End_of_Header***	
	
Channels	4				
Samples	4454	4454	4454	4454	
Date	1904/01/01	1904/01/01	1904/01/01	1904/01/01	
Time	09:00:00	09:00:00	09:00:00	09:00:00	
Y_Unit_Label	s	Hz	mV	°	
X_Dimension	Time	Time	Time	Time	
X0	0.0000000000000000E+0	0.0000000000000000E+0	0.0000000000000000E+0	0.0000000000000000E+0	
Delta_X	1.000000	1.000000	1.000000	1.000000	
***End_of_Header***					
X_Value	Time	Res.Frequency	Amplitude	Phase	Comment
	0.050003	1360.988988	22.328000	-4.500000
	0.150009	1360.985425	22.316000	-4.530000
	0.250014	1360.987801	22.330000	-4.480000
	0.350020	1360.991364	22.322000	-4.470000
	0.450026	1360.987801	22.326000	-4.530000
	0.550032	1360.987801	22.308000	-4.500000
	0.600034	1360.992552	22.322000	-4.460000
	0.750043	1360.988989	22.316000	-4.530000
	0.850049	1360.988989	22.304000	-4.500000
	0.950054	1360.990176	22.312000	-4.490000
	1.050060	1360.991364	22.318000	-4.490000
	1.150066	1360.990176	22.312000	-4.510000
	1.250072	1360.990176	22.312000	-4.510000
	1.350077	1360.987801	22.328000	-4.520000
	1.450083	1360.991364	22.306000	-4.470000
	1.550089	1360.990176	22.320000	-4.510000
	1.650095	1360.988989	22.310000	-4.510000
	1.750100	1360.991364	22.306000	-4.480000
	1.850106	1360.993739	22.292000	-4.480000
	1.950111	1360.988989	22.320000	-4.540000
	2.050117	1360.990176	22.314000	-4.490000
	2.150123	1360.990176	22.332000	-4.500000
	2.253129	1360.985426	22.344000	-4.540000
	2.349134	1360.986613	22.322000	-4.490000
	2.449140	1360.988989	22.322000	-4.480000
	2.549146	1360.994927	22.338000	-4.450000
	2.649151	1360.993740	22.330000	-4.510000
	2.749157	1360.986614	22.312000	-4.560000
	2.849163	1360.985426	22.330000	-4.510000
	2.949169	1360.983051	22.312000	-4.520000
	3.049174	1360.983051	22.312000	-4.520000
	3.149180	1360.981863	22.320000	-4.510000
	3.249186	1360.983051	22.320000	-4.490000
	3.349192	1360.984238	22.314000	-4.490000
	3.449197	1360.987801	22.308000	-4.470000
	3.549203	1360.980676	22.326000	-4.560000
	3.649209	1360.977113	22.312000	-4.530000
	3.749214	1360.980676	22.316000	-4.470000
	3.851220	1360.978300	22.344000	-4.520000
	3.949226	1360.972362	22.312000	-4.550000
	4.049232	1360.983052	22.324000	-4.410000
	4.149237	1360.985427	22.330000	-4.480000
	4.249243	1360.984239	22.314000	-4.510000
	4.349249	1360.990178	22.328000	-4.450000
	4.449255	1360.986615	22.314000	-4.530000
	4.549260	1360.988990	22.318000	-4.480000
	4.649266	1360.986615	22.320000	-4.520000
	4.799274	1360.986615	22.320000	-4.520000
	4.899280	1360.987802	22.286000	-4.490000
	4.999286	1360.987802	22.330000	-4.500000
	5.099292	1360.990178	22.334000	-4.480000
	5.199297	1360.988990	22.322000	-4.510000
	5.299303	1360.985427	22.318000	-4.530000
	5.399309	1360.986615	22.326000	-4.490000
	5.499314	1360.987803	22.310000	-4.490000
	5.599320	1360.992553	22.334000	-4.460000
	5.699326	1360.988990	22.304000	-4.530000
	5.799332	1360.992553	22.332000	-4.470000
	5.899337	1360.994929	22.296000	-4.480000
	5.999343	1360.997304	22.332000	-4.480000
	6.099349	1360.991366	22.330000	-4.550000
	6.199355	1360.993741	22.324000	-4.480000
	6.249357	1360.997304	22.314000	-4.470000
	6.399366	1360.993741	22.340000	-4.530000
	6.499372	1360.985428	22.322000	-4.570000
	6.599378	1360.985428	22.322000	-4.570000
	6.699383	1360.986616	22.322000	-4.490000
	6.799389	1360.985428	22.312000	-4.510000
	6.899395	1360.987803	22.324000	-4.480000
	6.999400	1360.986616	22.322000	-4.510000
	7.099406	1360.986616	22.316000	-4.500000
	7.199412	1360.986616	22.318000	-4.500000
	7.299417	1360.993742	22.314000	-4.440000
	7.399423	1360.996117	22.322000	-4.480000
	7.499429	1360.991367	22.312000	-4.540000
	7.599435	1360.987804	22.332000	-4.530000
	7.699440	1360.991367	22.314000	-4.470000
	7.801446	1360.997305	22.322000	-4.450000
	7.899452	1360.998493	22.328000	-4.490000
	7.999457	1361.003244	22.308000	-4.460000
	8.099463	1360.998493	22.322000	-4.540000
	8.199469	1360.998493	22.322000	-4.540000
	8.299475	1361.006807	22.318000	-4.430000
	8.399480	1361.007995	22.322000	-4.490000
	8.499486	1361.002057	22.322000	-4.550000
	8.599492	1361.003244	22.324000	-4.490000
	8.699498	1361.000869	22.314000	-4.520000
	8.799503	1360.998493	22.308000	-4.520000
	8.899509	1360.998493	22.312000	-4.500000
	8.999515	1360.994930	22.314000	-4.530000
	9.099521	1360.994930	22.316000	-4.500000
	9.199526	1360.994930	22.318000	-4.500000
	9.299532	1360.992555	22.318000	-4.520000
	9.401538	1360.988992	22.330000	-4.530000
	9.499543	1360.986617	22.322000	-4.520000
	9.599549	1360.990180	22.320000	-4.470000
	9.699555	1360.990180	22.334000	-4.500000
	9.799561	1360.992555	22.314000	-4.480000
	9.899566	1360.992555	22.314000	-4.480000
	9.999572	1360.987804	22.300000	-4.540000
	10.099578	1360.984241	22.314000	-4.530000
	10.199584	1360.980678	22.306000	-4.530000
	10.299589	1360.986617	22.318000	-4.450000
	10.399595	1360.986617	22.300000	-4.500000
	10.499600	1360.986617	22.310000	-4.500000
	10.601606	1360.986617	22.320000	-4.500000
	10.699612	1360.986617	22.336000	-4.500000
	10.804618	1360.986617	22.320000	-4.500000
	10.899623	1360.985429	22.328000	-4.510000
	10.999629	1360.986617	22.308000	-4.490000
	11.099635	1360.968803	22.198000	-4.650000
	11.199641	1360.971178	22.340000	-4.480000
	11.299646	1360.979492	22.318000	-4.430000
	11.399652	1360.980680	22.314000	-4.490000
	11.499658	1360.980680	22.338000	-4.500000
	11.599664	1360.988994	22.308000	-4.430000
	11.749672	1360.986619	22.290000	-4.520000
	11.849678	1360.998496	22.346000	-4.400000
	11.949684	1360.994933	22.326000	-4.530000
	12.054689	1361.002059	22.328000	-4.440000
	12.158695	1361.002059	22.328000	-4.440000
	12.249701	1361.002059	22.326000	-4.500000
	12.349706	1361.002059	22.326000	-4.500000
	12.458713	1360.999684	22.330000	-4.520000
	12.555718	1360.998496	22.312000	-4.510000
	12.653724	1360.997308	22.322000	-4.510000
	12.750729	1360.997308	22.330000	-4.500000
	12.849735	1360.997308	22.324000	-4.500000
	12.957741	1360.981869	22.312000	-4.630000
	13.049747	1360.979494	22.318000	-4.520000
	13.150752	1360.980682	22.322000	-4.490000
	13.249758	1360.983057	22.316000	-4.480000
	13.349763	1360.983057	22.338000	-4.500000
	13.449769	1360.985432	22.334000	-4.480000
	13.549775	1360.987808	22.338000	-4.480000
	13.649781	1360.987808	22.338000	-4.480000
	13.749786	1360.987808	22.324000	-4.500000
	13.849792	1360.985432	22.308000	-4.520000
	13.949798	1360.985432	22.322000	-4.500000
	14.049804	1360.992559	22.326000	-4.440000
	14.149809	1360.994934	22.328000	-4.480000
	14.249815	1360.996122	22.304000	-4.490000
	14.349821	1360.996122	22.322000	-4.500000
	14.449827	1360.996122	22.320000	-4.500000
	14.550832	1360.990183	22.312000	-4.550000
	14.649838	1360.991371	22.328000	-4.490000
	14.749844	1360.986621	22.324000	-4.540000
	14.849849	1360.990184	22.316000	-4.470000
	14.949855	1360.992559	22.298000	-4.480000
	15.099864	1360.992559	22.316000	-4.500000
	15.199870	1360.988996	22.312000	-4.530000
	15.300875	1360.990184	22.336000	-4.490000
	15.399881	1360.991371	22.326000	-4.490000
	15.499887	1360.991371	22.326000	-4.490000
	15.599892	1361.179203	21.672000	-2.920000
	15.699898	1361.166138	22.404000	-4.610000
	15.799904	1361.557931	21.416000	-1.210000
	15.899909	1361.181413	22.708000	-7.670000
	15.999915	1361.165972	22.224000	-4.630000
	16.100921	1361.160033	22.148000	-4.550000
	16.199926	1361.066220	22.722000	-5.290000
	16.299932	1361.279063	22.144000	-2.710000
	16.399938	1361.217303	22.258000	-5.020000
	16.499944	1361.159108	22.482000	-4.990000
	16.599949	1361.121102	22.316000	-4.820000
	16.699955	1361.118726	21.964000	-4.520000
	16.799961	1361.087847	22.324000	-4.760000
	16.899967	1361.098537	22.300000	-4.410000
	17.005973	1361.110415	22.406000	-4.400000
	17.099978	1361.090224	22.276000	-4.670000
	17.199984	1361.090224	22.276000	-4.670000
	17.299990	1361.048658	22.374000	-4.850000
	17.399995	1361.003531	22.462000	-4.880000
	17.500001	1361.011845	22.304000	-4.430000
	17.600007	1361.026098	22.142000	-4.380000
	17.700012	1361.040352	22.172000	-4.380000
	17.800018	1361.029662	22.330000	-4.590000
	17.900024	1360.813596	22.254000	-6.320000
	18.000030	1360.848039	22.356000	-4.210000
	18.100035	1360.880107	22.176000	-4.230000
	18.200041	1360.900298	22.312000	-4.330000
	18.300047	1360.723419	20.196000	-5.990000
	18.407053	1360.788747	22.334000	-3.950000
	18.500058	1360.826753	22.312000	-4.180000
	18.608064	1360.862384	22.296000	-4.200000
	18.700069	1360.894453	22.304000	-4.230000
	18.800076	1360.917019	22.312000	-4.310000
	18.900081	1360.917019	22.312000	-4.310000
	19.000087	1360.931271	22.322000	-4.380000
	19.100092	1360.867152	22.490000	-5.040000
	19.200098	1360.887343	22.320000	-4.330000
	19.300104	1360.851719	21.996000	-4.800000
	19.400110	1361.003838	22.092000	-3.220000
	19.500115	1361.145268	21.752000	-3.310000
	19.600121	1360.971919	21.150000	-5.960000
	19.700127	1360.974294	22.354000	-4.480000
	19.799132	1360.962418	22.314000	-4.600000
	19.900138	1360.964793	22.284000	-4.480000
	20.049147	1361.009933	22.422000	-4.120000
	20.149152	1360.956495	22.662000	-4.950000
	20.249158	1360.913746	22.398000	-4.860000
	20.349164	1360.916121	21.842000	-4.480000
	20.449170	1360.925622	21.902000	-4.420000
	20.549175	1361.305398	21.440000	-1.310000
	20.649181	1361.145088	21.842000	-5.850000
	20.749187	1361.051276	23.142000	-5.290000
	20.850193	1361.035836	22.274000	-4.630000
	20.949198	1361.008521	22.360000	-4.730000
	21.049204	1361.023962	22.808000	-4.370000
	21.149209	1361.165394	22.304000	-3.310000
	21.249216	1361.167770	22.584000	-4.480000
	21.399224	1361.125014	22.066000	-4.860000
	21.449227	1361.102447	22.212000	-4.690000
	21.599236	1361.116702	22.522000	-4.380000
	21.703241	1361.094135	22.494000	-4.690000
	21.800247	1361.059694	22.332000	-4.790000
	21.899252	1361.011004	22.230000	-4.910000
	21.999259	1360.995565	22.128000	-4.630000
	22.099264	1361.040705	22.368000	-4.120000
	22.249273	1361.052583	22.326000	-4.400000
	22.349278	1361.139320	22.448000	-3.770000
	22.449284	1361.364085	22.392000	-2.610000
	22.499287	1362.207286	20.306000	2.540000
	22.649295	1362.912961	20.250000	1.400000
	22.700298	1363.401113	20.316000	-0.410000
	22.856308	1363.870242	20.022000	-0.570000
	22.949313	1363.963115	20.116000	-3.720000
	23.049318	1363.929791	20.702000	-4.780000
	23.149324	1363.965503	20.394000	-4.200000
	23.251330	1363.727557	18.916000	-6.500000
	23.399338	1363.834715	20.392000	-3.600000
	23.499344	1363.872806	20.130000	-4.180000
	23.600350	1363.901374	20.288000	-4.260000
	23.699356	1363.788339	20.188000	-5.450000
	23.799361	1363.590865	20.192000	-6.160000
	23.899367	1363.250679	19.778000	-7.360000
	23.999372	1363.250679	19.778000	-7.360000
	24.099379	1363.033071	20.010000	-6.330000
	24.199384	1362.915353	20.074000	-5.490000
	24.299390	1362.873731	19.918000	-4.850000
	24.399395	1362.864216	19.566000	-4.580000
	24.499401	1362.848756	19.600000	-4.630000
	24.599407	1362.958226	19.548000	-3.580000
	24.699413	1362.998672	19.660000	-4.160000
	24.799418	1362.606288	19.864000	-7.800000
	24.899424	1362.687174	19.448000	-3.820000
	25.006430	1362.911002	20.044000	-2.620000
	25.099436	1362.947877	19.632000	-4.190000
	25.199441	1362.935984	19.682000	-4.600000
	25.299447	1362.919334	19.628000	-4.640000
	25.399453	1362.901494	19.588000	-4.650000
	25.499458	1362.826582	19.594000	-5.130000
	25.599464	1362.712447	19.822000	-5.460000
	25.699470	1362.628037	19.786000	-5.210000
	25.849479	1362.589990	19.652000	-4.820000
	25.949484	1362.512718	19.922000	-5.150000
	26.049490	1362.431885	19.718000	-5.180000
	26.149496	1362.364130	19.724000	-5.070000
	26.249501	1362.305885	19.726000	-4.990000
	26.349507	1362.258339	19.744000	-4.900000
	26.449513	1362.217926	19.704000	-4.840000
	26.599522	1361.992166	19.322000	-6.400000
	26.699527	1361.992166	19.322000	-6.400000
	26.799533	1362.011184	19.740000	-4.340000
	26.899539	1362.101552	19.670000	-3.740000
	26.999544	1362.005298	19.808000	-5.310000
	27.099550	1362.020750	19.718000	-4.370000
	27.199556	1362.021939	19.782000	-4.490000
	27.299562	1362.006488	19.746000	-4.630000
	27.404567	1361.991038	19.738000	-4.630000
	27.511574	1362.004112	19.704000	-4.390000
	27.599578	1362.004112	19.704000	-4.390000
	27.699584	1361.985096	19.778000	-4.660000
	27.799590	1361.947068	19.754000	-4.820000
	27.899596	1361.942314	19.764000	-4.540000
	28.002602	1361.912604	19.748000	-4.750000
	28.099607	1361.957775	19.676000	-4.120000
	28.199613	1361.939948	19.686000	-4.650000
	28.299619	1361.912614	19.650000	-4.730000
	28.412625	1361.901918	19.608000	-4.590000
	28.502630	1361.899541	19.620000	-4.520000
	28.599636	1361.922125	19.470000	-4.310000
	28.699642	1361.914994	19.578000	-4.560000
	28.799647	1361.919748	19.564000	-4.460000
	28.899653	1361.901921	19.588000	-4.650000
	29.049662	1361.897168	19.558000	-4.540000
	29.149667	1361.886472	19.626000	-4.590000
	29.249673	1362.078000	20.058000	-2.890000
	29.349679	1362.034027	19.584000	-4.870000
	29.499687	1361.995997	19.558000	-4.820000
	29.599693	1361.965098	19.556000	-4.760000
	29.699699	1361.944894	19.582000	-4.670000
	29.799705	1361.922314	19.576000	-4.690000
	29.949713	1361.905676	19.582000	-4.640000
	30.049719	1361.885473	19.576000	-4.670000
	30.149724	1361.871212	19.584000	-4.620000
	30.249730	1361.859328	19.564000	-4.600000
	30.401739	1361.859328	19.564000	-4.600000
	30.499744	1361.852197	19.558000	-4.560000
	30.599750	1361.845067	19.576000	-4.560000
	30.699756	1361.835560	19.586000	-4.580000
	30.799762	1361.821299	19.590000	-4.620000
	30.899767	1361.812981	19.578000	-4.570000
	30.999773	1361.808227	19.586000	-4.540000
	31.099779	1361.801097	19.590000	-4.560000
	31.199784	1361.801097	19.568000	-4.500000
	31.299790	1361.788025	19.580000	-4.610000
	31.402796	1361.785649	19.584000	-4.520000
	31.499802	1361.783272	19.574000	-4.520000
	31.599807	1361.789214	19.588000	-4.450000
	31.699813	1361.784460	19.580000	-4.540000
	31.799819	1361.777330	19.576000	-4.560000
	31.899825	1361.777330	19.574000	-4.500000
	31.999830	1361.780895	19.586000	-4.470000
	32.099836	1361.782084	19.586000	-4.490000
	32.249845	1361.789214	19.564000	-4.440000
	32.349850	1361.782084	19.578000	-4.560000
	32.449856	1361.776142	19.604000	-4.550000
	32.549862	1361.776142	19.604000	-4.550000
	32.649868	1361.753565	19.604000	-4.690000
	32.749873	1361.613392	20.128000	-5.680000
	32.849879	1360.467951	20.056000	-14.090000
	32.949884	1360.700939	19.544000	-2.540000
	33.049891	1360.892301	19.566000	-2.890000
	33.149896	1361.049183	19.596000	-3.180000
	33.249902	1361.172777	19.624000	-3.460000
	33.349907	1361.269033	19.536000	-3.690000
	33.449913	1361.352218	19.554000	-3.800000
	33.549919	1361.239394	20.268000	-5.450000
	33.649925	1361.321388	19.536000	-3.810000
	33.749930	1361.412899	19.484000	-3.730000
	33.854937	1361.598408	19.548000	-2.940000
	33.949942	1361.547323	19.378000	-4.930000
	34.049948	1361.669773	19.650000	-3.470000
	34.149953	1361.748226	19.524000	-3.840000
	34.249959	1361.819548	19.518000	-3.900000
	34.349965	1361.875416	19.534000	-4.030000
	34.449970	1361.918208	19.504000	-4.140000
	34.549976	1362.045451	19.942000	-3.430000
	34.649982	1362.050206	19.642000	-4.460000
	34.799990	1362.000292	19.888000	-4.920000
	34.899996	1362.000292	19.888000	-4.920000
	35.000002	1361.933747	19.620000	-5.060000
	35.100008	1362.512784	18.190000	0.350000
	35.200013	1362.707976	19.430000	-2.860000
	35.300019	1362.585531	19.480000	-5.530000
	35.400025	1362.518957	19.508000	-5.060000
	35.500031	1362.488046	19.508000	-4.760000
	35.600036	1362.455946	19.496000	-4.770000
	35.700042	1362.425037	19.496000	-4.760000
	35.800047	1362.395316	19.470000	-4.750000
	35.900054	1362.343013	19.562000	-4.940000
	36.000059	1362.308540	19.474000	-4.790000
	36.107065	1362.271690	19.514000	-4.810000
	36.200070	1362.244350	19.518000	-4.730000
	36.303076	1362.225331	19.500000	-4.660000
	36.400082	1362.207501	19.496000	-4.650000
	36.500088	1362.186105	19.504000	-4.680000
	36.600093	1362.171841	19.504000	-4.620000
	36.700099	1362.171841	19.504000	-4.620000
	36.800105	1362.145691	19.526000	-4.720000
	36.900111	1362.133805	19.532000	-4.600000
	37.000116	1362.111222	19.590000	-4.690000
	37.100122	1362.101713	19.500000	-4.580000
	37.200128	1362.082696	19.574000	-4.660000
	37.299133	1362.096960	19.592000	-4.380000
	37.399139	1362.395831	19.590000	-1.990000
	37.499145	1362.330454	19.546000	-5.050000
	37.599151	1362.281719	19.520000	-4.910000
	37.699156	1362.238928	19.550000	-4.860000
	37.804163	1362.194949	19.526000	-4.870000
	37.901168	1362.161668	19.538000	-4.780000
	37.999173	1362.139085	19.532000	-4.690000
	38.099179	1362.117690	19.524000	-4.680000
	38.199185	1362.103427	19.534000	-4.620000
	38.302191	1362.087975	19.538000	-4.630000
	38.403196	1362.077277	19.524000	-4.590000
	38.501202	1362.072523	19.570000	-4.540000
	38.649210	1362.065391	19.560000	-4.560000
	38.749216	1362.055883	19.540000	-4.580000
	38.849222	1362.049940	19.546000	-4.550000
	38.949228	1362.036866	19.542000	-4.610000
	39.049233	1362.033300	19.524000	-4.530000
	39.149239	1362.041620	19.530000	-4.430000
	39.252245	1362.038054	19.540000	-4.530000
	39.349251	1362.029735	19.552000	-4.570000
	39.499259	1362.026169	19.520000	-4.530000
	39.599265	1362.026169	19.520000	-4.530000
	39.699271	1362.029735	19.558000	-4.470000
	39.799276	1362.030923	19.548000	-4.490000
	39.899282	1362.029735	19.542000	-4.510000
	39.999288	1362.026169	19.542000	-4.530000
	40.100294	1362.023792	19.548000	-4.520000
	40.199299	1362.020226	19.552000	-4.530000
	40.299305	1362.021415	19.524000	-4.490000
	40.399311	1362.020226	19.522000	-4.510000
	40.499316	1362.022603	19.546000	-4.480000
	40.599322	1362.020226	19.540000	-4.520000
	40.649325	1362.023792	19.532000	-4.470000
	40.799334	1362.016660	19.566000	-4.560000
	40.899339	1362.014283	19.550000	-4.520000
	41.004345	1362.008341	19.558000	-4.550000
	41.099351	1362.010718	19.542000	-4.480000
	41.199357	1362.009529	19.542000	-4.510000
	41.299362	1362.008341	19.542000	-4.510000
	41.399368	1362.008341	19.530000	-4.500000
	41.499373	1362.007152	19.534000	-4.510000
	41.599380	1362.009529	19.540000	-4.480000
	41.699385	1362.004775	19.544000	-4.540000
	41.799391	1362.097521	19.076000	-3.720000
	41.949399	1362.070185	19.238000	-4.730000
	42.049405	1362.058299	19.550000	-4.600000
	42.149411	1362.058299	19.550000	-4.600000
	42.249416	1361.965612	19.210000	-5.280000
	42.349422	1362.000084	19.592000	-4.210000
	42.449428	1362.010782	19.542000	-4.410000
	42.549434	1362.009593	19.518000	-4.510000
	42.649439	1361.998897	19.550000	-4.590000
	42.749445	1361.985823	19.550000	-4.610000
	42.849451	1361.998898	19.506000	-4.390000
	42.949457	1362.023860	19.496000	-4.290000
	43.049462	1362.047634	19.522000	-4.300000
	43.149468	1362.078542	19.488000	-4.240000
	43.251474	1362.117773	19.504000	-4.170000
	43.349479	1362.159383	19.468000	-4.150000
	43.449485	1362.203373	19.456000	-4.130000
	43.549491	1362.262825	19.430000	-4.000000
	43.649497	1362.319901	19.432000	-4.020000
	43.749502	1362.379357	19.430000	-4.000000
	43.849508	1362.435248	19.370000	-4.030000
	43.949514	1362.500658	19.376000	-3.950000
	44.049520	1362.562502	19.354000	-3.980000
	44.149525	1362.562502	19.354000	-3.980000
	44.249531	1362.605316	19.262000	-4.140000
	44.349536	1362.421085	19.604000	-6.050000
	44.449543	1362.573380	19.366000	-3.220000
	44.549548	1362.659024	19.454000	-3.780000
	44.649554	1362.723255	19.302000	-3.960000
	44.749559	1362.772022	19.314000	-4.090000
	44.849565	1362.808894	19.326000	-4.190000
	44.952571	1362.836250	19.336000	-4.270000
	45.049577	1362.869555	19.348000	-4.220000
	45.151583	1362.845770	19.426000	-4.700000
	45.249588	1363.001686	19.418000	-3.190000
	45.349594	1363.030235	19.176000	-4.260000
	45.449600	1363.014773	19.302000	-4.630000
	45.549605	1362.993365	19.356000	-4.680000
	45.649611	1362.974335	19.262000	-4.660000
	45.799620	1362.973145	19.332000	-4.510000
	45.899625	1362.973145	19.312000	-4.500000
	45.999631	1362.967198	19.316000	-4.550000
	46.099637	1362.962441	19.336000	-4.540000
	46.199643	1362.962441	19.316000	-4.500000
	46.299648	1362.962441	19.316000	-4.500000
	46.399654	1362.939844	19.342000	-4.690000
	46.499660	1362.904167	19.308000	-4.800000
	46.601665	1362.911303	19.322000	-4.440000
	46.699671	1362.922008	19.314000	-4.410000
	46.799677	1362.930333	19.326000	-4.430000
	46.899683	1362.930333	19.320000	-4.500000
	46.999688	1362.933902	19.308000	-4.470000
	47.099694	1363.017188	19.728000	-3.800000
	47.199700	1362.872130	19.298000	-5.720000
	47.307706	1362.859048	19.504000	-4.610000
	47.399711	1362.895922	19.294000	-4.190000
	47.499717	1362.904248	19.344000	-4.430000
	47.599722	1362.870949	18.978000	-4.780000
	47.699728	1362.880464	19.350000	-4.420000
	47.799734	1362.886411	19.294000	-4.450000
	47.899740	1362.886411	19.294000	-4.450000
	47.999745	1362.879275	19.348000	-4.560000
	48.099751	1362.880465	19.306000	-4.490000
	48.199757	1362.920909	19.352000	-4.160000
	48.299763	1362.939940	19.300000	-4.340000
	48.399768	1362.972057	19.290000	-4.230000
	48.500774	1362.995848	19.252000	-4.300000
	48.603780	1363.017260	19.234000	-4.320000
	48.699786	1363.036292	19.262000	-4.340000
	48.799791	1363.049377	19.270000	-4.390000
	48.899797	1363.076738	19.248000	-4.270000
	49.005803	1363.096961	19.232000	-4.330000
	49.111809	1363.104099	19.236000	-4.440000
	49.219815	1363.125512	19.232000	-4.320000
	49.299820	1363.138598	19.238000	-4.390000
	49.449829	1363.156443	19.204000	-4.350000
	49.549834	1363.156443	19.204000	-4.350000
	49.649840	1363.177857	19.190000	-4.320000
	49.749846	1363.187374	19.212000	-4.420000
	49.849851	1363.074398	19.446000	-5.450000
	49.949857	1363.146980	19.014000	-3.890000
	50.049863	1362.921066	18.690000	-6.400000
	50.149868	1362.955562	19.224000	-4.210000
	50.249874	1362.903238	18.908000	-4.940000
	50.349880	1362.943682	19.216000	-4.160000
	50.449885	1362.984128	19.232000	-4.160000
	50.549891	1363.019816	19.196000	-4.200000
	50.649897	1363.044797	19.204000	-4.290000
	50.749903	1363.087626	19.150000	-4.140000
	50.849908	1363.124506	19.152000	-4.190000
	50.954915	1386.590226	0.290000	67.980000
	51.049920	1404.657492	0.448000	63.260000
	51.149926	1441.210379	0.236000	73.230000
	51.249931	1430.040957	7.026000	-62.690000
	51.349937	1430.040957	7.026000	-62.690000
	51.449943	1419.487685	9.978000	-61.370000
	51.549949	1409.660881	10.864000	-59.610000
	51.649954	1401.497677	12.260000	-54.520000
	51.749960	1394.750882	13.618000	-49.110000
	51.851966	1389.192187	14.822000	-43.620000
	51.949971	1384.864399	15.886000	-36.830000
	52.049977	1382.781675	14.992000	-21.360000
	52.149983	1381.084963	12.080000	-18.370000
	52.249989	1378.086559	17.402000	-28.200000
	52.349994	1375.591872	17.886000	-24.570000
	52.450000	1373.548890	18.266000	-21.160000
	52.556006	1371.853455	18.500000	-18.450000
	52.650012	1370.468681	18.660000	-15.970000
	52.750017	1369.329206	18.762000	-13.980000
	52.850023	1368.396950	18.862000	-12.280000
	52.950028	1367.624428	18.920000	-10.960000
	53.050035	1367.624428	18.920000	-10.960000
	53.150040	1366.983154	18.994000	-9.870000
	53.250046	1366.471393	18.994000	-8.790000
	53.350051	1366.045793	19.024000	-8.070000
	53.450057	1365.707379	19.054000	-7.340000
	53.550063	1365.431009	19.032000	-6.820000
	53.650069	1365.204717	19.030000	-6.400000
	53.752074	1365.023706	19.036000	-6.020000
	53.850080	1364.884387	19.032000	-5.670000
	53.950086	1364.785556	18.994000	-5.330000
	54.057092	1364.704588	19.012000	-5.180000
	54.150097	1364.633148	19.012000	-5.100000
	54.250103	1364.581950	19.020000	-4.930000
	54.350109	1364.539086	19.000000	-4.860000
	54.450114	1364.514082	19.020000	-4.710000
	54.550120	1364.499793	19.016000	-4.620000
	54.650126	1364.462885	19.040000	-4.810000
	54.749132	1364.449787	19.022000	-4.610000
	54.849137	1364.449787	19.022000	-4.610000
	54.949143	1364.424785	19.026000	-4.710000
	55.049149	1364.416450	19.012000	-4.570000
	55.149154	1364.441457	18.998000	-4.290000
	55.249160	1364.424788	19.024000	-4.640000
	55.349166	1364.430742	19.000000	-4.450000
	55.449172	1364.455749	18.998000	-4.290000
	55.549177	1364.466465	18.982000	-4.410000
	55.652183	1364.514103	18.950000	-4.100000
	55.749189	1364.589145	18.920000	-3.870000
	55.849195	1364.630831	18.942000	-4.150000
	55.949200	1364.720180	18.862000	-3.750000
	56.049206	1364.770210	18.940000	-4.080000
	56.149211	1364.815475	18.918000	-4.120000
	56.249218	1364.858360	18.918000	-4.140000
	56.349223	1364.859551	18.946000	-4.490000
	56.449229	1364.885757	18.908000	-4.280000
	56.599237	1364.903624	18.918000	-4.350000
	56.699243	1364.915536	18.926000	-4.400000
	56.799249	1364.915536	18.926000	-4.400000
	56.899254	1364.939360	18.878000	-4.300000
	56.999260	1364.983440	18.892000	-4.130000
	57.099266	1365.015606	18.862000	-4.230000
	57.199272	1365.090675	18.846000	-3.870000
	57.299277	1365.157404	18.828000	-3.940000
	57.401283	1365.214601	18.836000	-4.020000
	57.499289	1365.296835	18.804000	-3.810000
	57.599295	1365.355230	18.806000	-4.010000
	57.699300	1365.416011	18.796000	-3.990000
	57.799306	1365.472027	18.768000	-4.030000
	57.899312	1365.510164	18.812000	-4.180000
	58.001318	1365.554262	18.776000	-4.130000
	58.099323	1365.593593	18.778000	-4.170000
	58.199329	1365.623389	18.788000	-4.250000
	58.299335	1365.684183	18.718000	-3.990000
	58.399340	1365.684183	18.718000	-3.990000
	58.499346	1365.730671	18.758000	-4.110000
	58.599352	1365.783122	18.724000	-4.060000
	58.699358	1365.876125	18.666000	-3.720000
	58.799363	1365.940508	18.692000	-3.960000
	58.899369	1366.028750	18.638000	-3.760000
	58.999374	1366.148023	18.594000	-3.500000
	59.099380	1366.226733	18.636000	-3.840000
	59.199386	1366.361542	18.508000	-3.370000
	59.299392	1366.460552	18.542000	-3.670000
	59.399397	1366.578669	18.526000	-3.510000
	59.499403	1366.712318	18.462000	-3.380000
	59.599409	1366.822099	18.496000	-3.580000
	59.702415	1366.896074	18.502000	-3.880000
	59.799420	1366.959311	18.526000	-3.970000
	59.899426	1367.045231	18.500000	-3.780000
	59.999432	1367.070286	18.530000	-4.290000
	60.099438	1367.127563	18.480000	-4.020000
	60.199443	1367.132335	18.536000	-4.460000
	60.299449	1367.102512	18.600000	-4.750000
	60.399455	1367.098933	18.548000	-4.530000
	60.549463	1367.022598	18.634000	-5.140000
	60.649469	1366.968924	18.650000	-4.950000
	60.749475	1366.928371	18.628000	-4.840000
	60.849481	1366.915250	18.630000	-4.610000
	60.949486	1366.934337	18.556000	-4.340000
	61.049492	1367.019062	18.484000	-3.790000
	61.199501	1367.121702	18.454000	-3.640000
	61.299506	1367.210020	18.448000	-3.760000
	61.399512	1367.367630	18.322000	-3.180000
	61.499517	1367.561125	18.214000	-2.880000
	61.599523	1367.561125	18.214000	-2.880000
	61.699529	1367.489536	18.540000	-5.100000
	61.799535	1367.636421	18.248000	-3.270000
	61.899540	1367.501606	18.640000	-5.630000
	61.999546	1367.576812	18.356000	-3.870000
	62.099552	1367.625752	18.416000	-4.090000
	62.199558	1367.653205	18.434000	-4.270000
	62.299563	1367.803693	18.196000	-3.240000
	62.399569	1367.738057	18.520000	-5.050000
	62.499575	1367.831194	18.306000	-3.720000
	62.599580	1367.884920	18.330000	-4.050000
	62.704587	1367.948203	18.312000	-3.970000
	62.800592	1368.029406	18.290000	-3.820000
	62.899598	1368.072392	18.306000	-4.140000
	62.999603	1368.032999	18.432000	-4.830000
	63.099609	1368.147666	18.186000	-3.540000
	63.199615	1368.238440	18.208000	-3.740000
	63.299621	1368.268294	18.300000	-4.250000
	63.399626	1368.293371	18.282000	-4.290000
	63.499632	1368.277849	18.330000	-4.630000
	63.649641	1368.314870	18.280000	-4.190000
	63.749646	1368.329200	18.292000	-4.380000
	63.849652	1368.381751	18.210000	-4.060000
	63.949658	1368.381751	18.210000	-4.060000
	64.049664	1368.356677	18.342000	-4.710000
	64.149669	1368.183602	18.580000	-5.950000
	64.249675	1367.991458	18.616000	-6.110000
	64.349680	1367.743264	18.724000	-6.580000
	64.449687	1367.553568	18.702000	-6.090000
	64.549692	1367.326924	18.788000	-6.400000
	64.649698	1367.133708	18.778000	-6.120000
	64.749703	1367.117006	18.576000	-4.640000
	64.849709	1366.959588	18.790000	-5.820000
	64.949715	1367.009700	18.524000	-4.080000
	65.049721	1367.051460	18.582000	-4.150000
	65.152727	1366.966780	18.736000	-5.210000
	65.249732	1367.016892	18.518000	-4.080000
	65.349738	1366.982301	18.680000	-4.790000
	65.449743	1366.966794	18.614000	-4.630000
	65.549749	1366.985882	18.588000	-4.340000
	65.649755	1366.889283	18.748000	-5.310000
	65.749761	1366.851117	18.670000	-4.820000
	65.849766	1366.835611	18.646000	-4.630000
	65.949772	1366.826069	18.660000	-4.580000
	66.099781	1366.832033	18.642000	-4.450000
	66.199786	1366.877367	18.630000	-4.120000
	66.299792	1366.997908	18.466000	-3.490000
	66.399798	1367.000294	18.630000	-4.480000
	66.499804	1367.194933	18.308000	-2.870000
	66.599809	1367.310724	18.394000	-3.530000
	66.699815	1367.379950	18.488000	-3.920000
	66.849823	1367.379950	18.488000	-3.920000
	66.949829	1367.662010	18.100000	-2.140000
	67.053835	1367.644109	18.520000	-4.650000
	67.149841	1367.764717	18.318000	-3.490000
	67.249846	1367.893702	18.280000	-3.420000
	67.349852	1367.941460	18.382000	-4.100000
	67.449858	1368.065680	18.220000	-3.460000
	67.549864	1368.223389	18.132000	-3.180000
	67.649869	1368.258020	18.318000	-4.210000
	67.749875	1368.269960	18.348000	-4.400000
	67.849881	1368.249663	18.432000	-4.670000
	67.956887	1368.151782	18.544000	-5.320000
	68.056892	1368.076581	18.508000	-5.130000
	68.149898	1367.973939	18.570000	-5.360000
	68.250904	1367.874884	18.600000	-5.330000
	68.349909	1367.867722	18.496000	-4.560000
	68.449915	1367.867722	18.496000	-4.560000
	68.599924	1367.882047	18.450000	-4.380000
	68.699929	1367.944135	18.400000	-3.980000
	68.799935	1368.067161	18.250000	-3.470000
	68.899941	1368.134036	18.334000	-3.940000
	68.999947	1368.251102	18.232000	-3.520000
	69.099952	1368.317985	18.286000	-3.940000
	69.199958	1368.388457	18.246000	-3.910000
	69.299963	1368.463712	18.232000	-3.870000
	69.399970	1368.493570	18.328000	-4.250000
	69.499975	1368.531792	18.300000	-4.180000
	69.599981	1368.523432	18.388000	-4.570000
	69.699986	1368.493579	18.378000	-4.750000
	69.799992	1368.497161	18.350000	-4.470000
	69.905998	1368.417167	18.470000	-5.170000
	70.000004	1368.374183	18.478000	-4.860000
	70.100009	1368.321650	18.484000	-4.940000
	70.200015	1368.321650	18.484000	-4.940000
	70.300021	1368.254796	18.506000	-5.060000
	70.400027	1368.246438	18.404000	-4.570000
	70.500032	1368.216590	18.468000	-4.750000
	70.600038	1368.230919	18.420000	-4.380000
	70.700044	1368.205847	18.442000	-4.710000
	70.800049	1368.192714	18.410000	-4.610000
	70.900055	1368.166449	18.474000	-4.720000
	71.000061	1368.158092	18.456000	-4.570000
	71.105067	1368.130633	18.500000	-4.730000
	71.200072	1368.059014	18.534000	-5.100000
	71.302078	1367.994559	18.556000	-5.040000
	71.405084	1367.961137	18.540000	-4.780000
	71.500090	1367.905040	18.544000	-4.970000
	71.610096	1367.877587	18.536000	-4.730000
	71.709102	1367.872812	18.518000	-4.540000
	71.810107	1367.820299	18.586000	-4.940000
	71.912113	1367.779720	18.548000	-4.840000
	72.008119	1367.771365	18.538000	-4.570000
	72.100124	1367.718855	18.600000	-4.940000
	72.200130	1367.718855	18.600000	-4.940000
	72.299135	1367.765413	18.460000	-4.110000
	72.399141	1367.770187	18.514000	-4.460000
	72.499147	1367.748704	18.574000	-4.680000
	72.599153	1367.763028	18.518000	-4.380000
	72.751161	1367.674725	18.632000	-5.240000
	72.799164	1367.598358	18.654000	-5.140000
	72.949172	1367.709404	18.380000	-3.570000
	73.049178	1367.623491	18.656000	-5.220000
	73.149184	1367.574566	18.582000	-4.910000
	73.249189	1367.607987	18.518000	-4.220000
	73.349195	1367.510151	18.698000	-5.320000
	73.449201	1367.550732	18.480000	-4.160000
	73.549207	1367.563861	18.558000	-4.390000
	73.649212	1367.512552	18.622000	-4.930000
	73.756218	1367.645098	18.356000	-3.390000
	73.849224	1367.685683	18.508000	-4.160000
	73.949230	1367.701200	18.526000	-4.370000
	74.049235	1367.891154	18.200000	-2.910000
	74.149241	1367.919807	18.450000	-4.260000
	74.249247	1367.975925	18.404000	-4.030000
	74.349253	1368.058325	18.350000	-3.810000
	74.449258	1367.998643	18.558000	-5.000000
	74.599267	1367.998643	18.558000	-5.000000
	74.699273	1367.929418	18.582000	-5.080000
	74.799278	1367.898384	18.560000	-4.760000
	74.899284	1367.822004	18.598000	-5.140000
	75.000290	1367.711030	18.658000	-5.430000
	75.099296	1367.713417	18.548000	-4.480000
	75.149298	1367.626311	18.646000	-5.230000
	75.299307	1367.551139	18.672000	-5.130000
	75.399312	1367.536819	18.602000	-4.620000
	75.499318	1367.474774	18.676000	-5.020000
	75.599324	1367.428241	18.648000	-4.890000
	75.699330	1367.443755	18.564000	-4.370000
	75.799335	1367.418697	18.632000	-4.710000
	75.849339	1367.399606	18.612000	-4.660000
	75.999347	1367.478389	18.494000	-3.840000
	76.099353	1367.474809	18.610000	-4.530000
	76.204359	1367.471229	18.596000	-4.530000
	76.299364	1367.523747	18.548000	-4.060000
	76.399370	1367.479598	18.686000	-4.870000
	76.499375	1367.452154	18.602000	-4.730000
	76.599381	1367.503477	18.518000	-4.070000
	76.699387	1367.474839	18.702000	-4.740000
	76.799393	1367.539297	18.498000	-3.960000
	76.899398	1367.584655	18.500000	-4.120000
	76.999404	1367.584655	18.500000	-4.120000
	77.101410	1367.554822	18.638000	-4.750000
	77.199416	1367.544081	18.602000	-4.590000
	77.299421	1367.511863	18.650000	-4.770000
	77.399427	1367.472486	18.646000	-4.830000
	77.549436	1367.456974	18.672000	-4.630000
	77.649441	1367.424757	18.640000	-4.770000
	77.749447	1367.366297	18.718000	-4.990000
	77.849452	1367.381810	18.592000	-4.370000
	77.949459	1367.471339	18.476000	-3.750000
	78.049464	1367.560874	18.488000	-3.750000
	78.149470	1367.767555	18.260000	-2.770000
	78.249475	1367.889370	18.368000	-3.480000
	78.349481	1368.042275	18.236000	-3.220000
	78.449487	1368.179655	18.270000	-3.350000
	78.549493	1368.294334	18.278000	-3.540000
	78.652499	1368.467619	18.110000	-3.050000
	78.749504	1368.563196	18.214000	-3.700000
	78.849510	1368.753270	18.038000	-2.910000
	78.949516	1368.883544	18.058000	-3.410000
	79.049521	1368.975563	18.194000	-3.730000
	79.149527	1369.157314	17.924000	-2.980000
	79.249533	1369.230220	18.082000	-3.890000
	79.349538	1369.350968	17.952000	-3.490000
	79.449544	1369.350968	17.952000	-3.490000
	79.549550	1369.496856	17.816000	-3.280000
	79.649556	1369.683466	17.650000	-2.940000
	79.799564	1369.997206	17.284000	-1.880000
	79.900570	1370.175498	17.632000	-3.010000
	79.999576	1370.671076	16.478000	-0.370000
	80.099581	1370.645959	17.894000	-4.710000
	80.199587	1371.364514	15.284000	1.470000
	80.299593	1371.508219	17.122000	-3.300000
	80.399599	1371.615988	17.004000	-3.600000
	80.499604	1372.422781	7.770000	2.190000
	80.599610	1372.398830	16.262000	-4.700000
	80.699615	1372.468313	16.948000	-3.920000
	80.749619	1372.237263	17.808000	-6.430000
	80.899627	1371.560146	18.494000	-10.150000
	80.999633	1370.523261	18.874000	-13.130000
	81.099638	1369.599871	18.734000	-12.200000
	81.199644	1372.039713	1.148000	14.950000
	81.299650	1370.539640	18.792000	-16.900000
	81.449658	1369.396448	18.258000	-14.010000
	81.549664	1368.359985	19.032000	-13.140000
	81.649670	1367.529715	19.126000	-11.440000
	81.749676	1366.798527	19.122000	-10.620000
	81.899684	1366.157640	19.198000	-9.870000
	81.999690	1365.588830	19.214000	-9.270000
	82.099696	1365.190931	16.526000	-7.840000
	82.199701	1365.911470	17.304000	1.510000
	82.352710	1366.701540	17.426000	2.080000
	82.449716	1367.672664	16.452000	3.560000
	82.549722	1368.348453	17.272000	1.130000
	82.649727	1367.477214	19.128000	-11.780000
	82.749733	1367.245812	10.744000	-6.440000
	82.899742	1386.305497	0.338000	64.500000
	82.999747	1382.190956	15.860000	-35.570000
	83.099753	1378.673788	17.186000	-31.770000
	83.199759	1375.760326	17.724000	-27.630000
	83.349767	1373.381559	18.212000	-23.730000
	83.449773	1373.381559	18.212000	-23.730000
	83.549779	1371.420114	18.524000	-20.550000
	83.649785	1369.811179	18.778000	-17.780000
	83.749790	1368.486292	18.918000	-15.500000
	83.849796	1367.399541	19.048000	-13.560000
	83.949801	1366.512032	19.122000	-11.920000
	84.049808	1365.780188	19.154000	-10.630000
	84.156814	1365.180453	19.224000	-9.530000
	84.266820	1364.681301	19.248000	-8.690000
	84.349824	1364.276517	19.254000	-7.900000
	84.449830	1363.940923	19.274000	-7.320000
	84.549836	1363.664910	19.300000	-6.820000
	84.649842	1363.431774	19.268000	-6.460000
	84.749847	1363.243865	19.306000	-6.080000
	84.899856	1363.089271	19.284000	-5.800000
	84.999862	1362.966792	19.300000	-5.530000
	85.099867	1362.966792	19.300000	-5.530000
	85.199873	1362.866911	19.300000	-5.340000
	85.299879	1362.783679	19.296000	-5.200000
	85.399885	1362.736117	19.280000	-4.900000
	85.499890	1362.673101	19.284000	-5.030000
	85.599896	1362.632675	19.296000	-4.840000
	85.699902	1362.594628	19.280000	-4.820000
	85.799908	1362.567282	19.276000	-4.730000
	85.899913	1362.551825	19.290000	-4.630000
	85.999919	1362.533990	19.320000	-4.650000
	86.099925	1362.512589	19.316000	-4.680000
	86.199930	1362.495944	18.720000	-4.640000
	86.299936	1362.470977	19.302000	-4.710000
	86.403942	1362.453144	19.306000	-4.650000
	86.499948	1362.442443	19.298000	-4.590000
	86.601954	1362.442443	19.326000	-4.500000
	86.699959	1362.426988	19.308000	-4.630000
	86.799965	1362.417477	19.326000	-4.580000
	86.899971	1362.418666	19.288000	-4.490000
	86.999976	1362.308130	18.306000	-5.430000
	87.149985	1362.330720	19.310000	-4.310000
	87.249990	1362.341420	19.300000	-4.410000
	87.349996	1362.341420	19.300000	-4.410000
	87.450002	1362.352120	19.306000	-4.410000
	87.550008	1362.368765	19.292000	-4.360000
	87.650013	1362.368765	19.298000	-4.500000
	87.750019	1362.375899	19.310000	-4.440000
	87.850025	1362.384221	19.280000	-4.430000
	87.950030	1362.391355	19.280000	-4.440000
	88.050036	1362.390166	19.300000	-4.510000
	88.150042	1362.391355	19.294000	-4.490000
	88.250048	1362.394922	19.286000	-4.470000
	88.350053	1362.393733	19.290000	-4.510000
	88.450059	1362.396111	19.278000	-4.480000
	88.552065	1362.387789	19.302000	-4.570000
	88.650071	1362.390166	19.300000	-4.480000
	88.750076	1362.393733	19.304000	-4.470000
	88.850082	1362.393733	19.318000	-4.500000
	88.950088	1362.391355	19.298000	-4.520000
	89.050093	1362.388978	19.292000	-4.520000
	89.150099	1362.387789	19.298000	-4.510000
	89.250105	1362.387789	19.298000	-4.510000
	89.350111	1362.387789	19.302000	-4.500000
	89.450116	1362.385411	19.290000	-4.520000
	89.550122	1362.385411	19.302000	-4.500000
	89.650128	1362.391356	19.312000	-4.450000
	89.749134	1362.387789	19.298000	-4.530000
	89.849139	1362.381845	19.328000	-4.550000
	89.949145	1362.388978	19.324000	-4.440000
	90.049150	1362.386600	19.290000	-4.520000
	90.149156	1362.386600	19.324000	-4.500000
	90.254162	1362.384223	19.304000	-4.520000
	90.349168	1362.380656	19.318000	-4.530000
	90.449173	1362.374711	19.308000	-4.550000
	90.549179	1362.371145	19.310000	-4.530000
	90.649185	1362.364012	19.332000	-4.560000
	90.749191	1362.361634	19.338000	-4.520000
	90.849196	1362.361634	19.338000	-4.520000
	90.949202	1362.362823	19.330000	-4.490000
	91.049208	1362.354501	19.314000	-4.570000
	91.149213	1362.356879	19.312000	-4.480000
	91.249219	1362.353312	19.336000	-4.530000
	91.349225	1362.353312	19.314000	-4.500000
	91.449231	1362.349745	19.328000	-4.530000
	91.549236	1362.354501	19.314000	-4.460000
	91.649242	1362.354501	19.304000	-4.500000
	91.749248	1362.356879	19.332000	-4.480000
	91.852253	1362.358068	19.344000	-4.490000
	91.949259	1362.360445	19.308000	-4.480000
	92.049265	1362.359257	19.324000	-4.510000
	92.149271	1362.360445	19.332000	-4.490000
	92.249277	1362.360445	19.308000	-4.500000
	92.349282	1362.356879	19.320000	-4.530000
	92.449288	1362.358068	19.294000	-4.490000
	92.549294	1362.352123	19.320000	-4.550000
	92.699302	1362.347368	19.330000	-4.540000
	92.799308	1362.352124	19.324000	-4.460000
	92.899313	1362.347368	19.314000	-4.540000
	92.999319	1362.353313	19.324000	-4.450000
	93.099325	1362.356879	19.304000	-4.470000
	93.199331	1362.365202	19.314000	-4.430000
	93.301336	1362.367580	19.324000	-4.480000
	93.449345	1362.368769	19.324000	-4.490000
	93.549351	1362.364013	19.322000	-4.540000
	93.649356	1362.360446	19.308000	-4.530000
	93.749362	1362.362824	19.318000	-4.480000
	93.849368	1362.359258	19.322000	-4.530000
	93.949374	1362.359258	19.322000	-4.530000
	94.049379	1362.361635	19.320000	-4.480000
	94.149385	1362.359258	19.332000	-4.520000
	94.249391	1362.350936	19.302000	-4.570000
	94.349397	1362.349747	19.306000	-4.510000
	94.449402	1362.353313	19.340000	-4.470000
	94.549408	1362.348558	19.304000	-4.540000
	94.649414	1362.346180	19.318000	-4.520000
	94.749419	1362.355692	19.314000	-4.420000
	94.851425	1362.358069	19.336000	-4.480000
	94.949431	1362.371148	19.342000	-4.390000
	95.049437	1362.369959	19.320000	-4.510000
	95.149442	1362.368770	19.328000	-4.510000
	95.249448	1362.372337	19.302000	-4.470000
	95.349454	1362.365204	19.306000	-4.560000
	95.449460	1362.365204	19.314000	-4.500000
	95.549465	1362.365204	19.314000	-4.500000
	95.649471	1362.360448	19.316000	-4.540000
	95.749476	1362.356881	19.306000	-4.530000
	95.849483	1362.364015	19.308000	-4.440000
	95.949488	1362.360448	19.304000	-4.530000
	96.049494	1362.358071	19.288000	-4.520000
	96.149499	1362.359259	19.316000	-4.490000
	96.249505	1362.355693	19.314000	-4.530000
	96.349511	1362.359260	19.330000	-4.470000
	96.449517	1362.356882	19.298000	-4.520000
	96.551522	1362.348560	19.334000	-4.570000
	96.649528	1362.347371	19.322000	-4.510000
	96.749534	1362.342616	19.304000	-4.540000
	96.849539	1362.342616	19.328000	-4.500000
	96.949545	1362.344993	19.304000	-4.480000
	97.049551	1362.343805	19.346000	-4.510000
	97.149557	1362.333105	19.342000	-4.590000
	97.299565	1362.325972	19.338000	-4.560000
	97.399571	1362.325972	19.326000	-4.500000
	97.499577	1362.320028	19.304000	-4.550000
	97.599582	1362.320028	19.304000	-4.550000
	97.699588	1362.315273	19.360000	-4.540000
	97.799594	1362.317650	19.328000	-4.480000
	97.899600	1362.314084	19.316000	-4.530000
	97.999605	1362.317650	19.304000	-4.470000
	98.099611	1362.318839	19.314000	-4.490000
	98.199617	1362.320028	19.332000	-4.490000
	98.299623	1362.312895	19.316000	-4.560000
	98.399628	1362.314084	19.320000	-4.490000
	98.499634	1362.306951	19.302000	-4.560000
	98.599639	1362.308140	19.302000	-4.490000
	98.699646	1362.310518	19.328000	-4.480000
	98.800651	1362.308140	19.316000	-4.520000
	98.899657	1362.305762	19.300000	-4.520000
	98.999662	1362.280799	19.290000	-4.710000
	99.099668	1362.283177	19.342000	-4.480000
	99.199674	1362.281988	19.322000	-4.510000
	99.299680	1362.281988	19.322000	-4.510000
	99.401685	1362.281988	19.326000	-4.500000
	99.499691	1362.283177	19.350000	-4.490000
	99.599697	1362.280799	19.340000	-4.520000
	99.699703	1362.277233	19.332000	-4.530000
	99.799708	1362.276044	19.342000	-4.510000
	99.899714	1362.258213	19.342000	-4.650000
	100.006720	1362.257024	19.326000	-4.510000
	100.099725	1362.261779	19.348000	-4.460000
	100.199731	1362.252269	19.330000	-4.580000
	100.299737	1362.248703	19.338000	-4.530000
	100.399743	1362.247514	19.334000	-4.510000
	100.499748	1362.255836	19.328000	-4.430000
	100.599754	1362.260591	19.334000	-4.460000
	100.699759	1362.259402	19.322000	-4.510000
	100.799766	1362.259402	19.324000	-4.500000
	100.949774	1362.247515	19.326000	-4.600000
	101.049780	1362.242760	19.332000	-4.540000
	101.149786	1362.246326	19.334000	-4.470000
	101.249791	1362.243949	19.318000	-4.520000
	101.349797	1362.245138	19.300000	-4.490000
	101.449802	1362.246326	19.330000	-4.490000
	101.549809	1362.246326	19.330000	-4.500000
	101.699817	1362.249893	19.342000	-4.470000
	101.799823	1362.249893	19.318000	-4.500000
	101.899828	1362.252270	19.324000	-4.480000
	101.999834	1362.252270	19.324000	-4.480000
	102.099840	1362.258214	19.328000	-4.450000
	102.199845	1362.267725	19.342000	-4.420000
	102.299851	1362.271292	19.326000	-4.470000
	102.399857	1362.274858	19.344000	-4.470000
	102.499863	1362.279613	19.342000	-4.460000
	102.599868	1362.284369	19.324000	-4.460000
	102.699874	1362.280802	19.326000	-4.530000
	102.799880	1362.285558	19.348000	-4.460000
	102.899886	1362.286746	19.330000	-4.490000
	102.999891	1362.291502	19.320000	-4.460000
	103.099897	1362.295068	19.332000	-4.470000
	103.206903	1362.286747	19.320000	-4.570000
	103.299909	1362.284369	19.316000	-4.520000
	103.399914	1362.289125	19.320000	-4.460000
	103.499920	1362.290313	19.316000	-4.490000
	103.599926	1362.290313	19.316000	-4.490000
	103.699931	1362.286747	19.318000	-4.530000
	103.799937	1362.286747	19.328000	-4.500000
	103.899943	1362.289125	19.326000	-4.480000
	103.999949	1362.285558	19.320000	-4.530000
	104.099954	1362.286747	19.330000	-4.490000
	104.199960	1362.283181	19.340000	-4.530000
	104.299965	1362.283181	19.326000	-4.500000
	104.399971	1362.280803	19.312000	-4.520000
	104.499977	1362.270104	19.342000	-4.590000
	104.599983	1362.265349	19.340000	-4.540000
	104.702989	1362.262971	19.340000	-4.520000
	104.799994	1362.261783	19.318000	-4.510000
	104.900000	1362.266538	19.320000	-4.460000
	105.000006	1362.267727	19.324000	-4.490000
	105.100011	1362.273671	19.338000	-4.450000
	105.200017	1362.271293	19.346000	-4.520000
	105.300023	1362.272482	19.332000	-4.490000
	105.400029	1362.272482	19.314000	-4.500000
	105.550037	1362.270104	19.330000	-4.520000
	105.650043	1362.260594	19.322000	-4.580000
	105.750049	1362.260594	19.322000	-4.580000
	105.850054	1362.265350	19.324000	-4.460000
	105.950060	1362.266538	19.330000	-4.490000
	106.050066	1362.264161	19.358000	-4.520000
	106.151072	1362.271294	19.332000	-4.440000
	106.253078	1362.267727	19.320000	-4.530000
	106.354083	1362.270105	19.336000	-4.480000
	106.500092	1362.268916	19.340000	-4.510000
	106.550094	1362.268916	19.306000	-4.500000
	106.700103	1362.277238	19.322000	-4.430000
	106.800108	1362.277238	19.366000	-4.500000
	106.901114	1362.277238	19.348000	-4.500000
	107.051123	1362.276049	19.324000	-4.510000
	107.150128	1362.279616	19.332000	-4.470000
	107.249134	1362.283182	19.326000	-4.470000
	107.349140	1362.281993	19.346000	-4.510000
	107.449146	1362.278427	19.338000	-4.530000
	107.549151	1362.279616	19.334000	-4.490000
	107.649157	1362.285560	19.314000	-4.450000
	107.749163	1362.291504	19.336000	-4.450000
	107.854169	1362.290315	19.322000	-4.510000
	107.955175	1362.290315	19.326000	-4.500000
	108.049180	1362.289127	19.302000	-4.510000
	108.149186	1362.290315	19.324000	-4.490000
	108.249191	1362.284371	19.316000	-4.550000
	108.349197	1362.278428	19.326000	-4.550000
	108.449203	1362.271295	19.332000	-4.560000
	108.599212	1362.266540	19.328000	-4.540000
	108.699217	1362.266540	19.338000	-4.500000
	108.799223	1362.266540	19.342000	-4.500000
	108.899229	1362.264162	19.320000	-4.520000
	109.002234	1362.262973	19.330000	-4.510000
	109.099240	1362.262973	19.330000	-4.510000
	109.199246	1362.262973	19.348000	-4.500000
	109.299252	1362.262973	19.324000	-4.500000
	109.349255	1362.262973	19.334000	-4.500000
	109.500263	1362.261785	19.348000	-4.510000
	109.601269	1362.249897	19.356000	-4.600000
	109.699275	1362.249897	19.334000	-4.500000
	109.801280	1362.236821	19.320000	-4.610000
	109.910286	1362.234443	19.356000	-4.520000
	110.001292	1362.232066	19.346000	-4.520000
	110.099298	1362.230877	19.348000	-4.510000
	110.199303	1362.229688	19.330000	-4.510000
	110.299309	1362.229688	19.340000	-4.500000
	110.399314	1362.229688	19.336000	-4.500000
	110.549323	1362.230877	19.342000	-4.490000
	110.649329	1362.229688	19.340000	-4.510000
	110.749334	1362.229688	19.340000	-4.510000
	110.849340	1362.233255	19.328000	-4.470000
	110.949346	1362.234444	19.330000	-4.490000
	111.060352	1362.236821	19.330000	-4.480000
	111.149357	1362.243954	19.322000	-4.440000
	111.249363	1362.245143	19.324000	-4.490000
	111.349369	1362.233255	19.326000	-4.600000
	111.449375	1362.235633	19.320000	-4.480000
	111.549380	1362.234444	19.334000	-4.510000
	111.649386	1362.236822	19.364000	-4.480000
	111.749392	1362.234444	19.322000	-4.520000
	111.849397	1362.234444	19.342000	-4.500000
	111.949403	1362.234444	19.320000	-4.500000
	112.054409	1362.238011	19.334000	-4.470000
	112.149415	1362.236822	19.338000	-4.510000
	112.249420	1362.238011	19.346000	-4.490000
	112.349426	1362.232067	19.342000	-4.550000
	112.449432	1362.233256	19.336000	-4.490000
	112.549438	1362.232067	19.332000	-4.510000
	112.649443	1362.234444	19.346000	-4.480000
	112.749449	1362.233256	19.318000	-4.510000
	112.899457	1362.234444	19.338000	-4.490000
	112.999463	1362.229689	19.340000	-4.540000
	113.099469	1362.229689	19.340000	-4.500000
	113.199475	1362.228501	19.338000	-4.510000
	113.302481	1362.232067	19.346000	-4.470000
	113.399486	1362.228501	19.350000	-4.530000
	113.499492	1362.228501	19.344000	-4.500000
	113.599497	1362.223746	19.346000	-4.540000
	113.749506	1362.224935	19.350000	-4.490000
	113.849512	1362.224935	19.350000	-4.490000
	113.949518	1362.222557	19.336000	-4.520000
	114.049523	1362.222557	19.336000	-4.500000
	114.149529	1362.223746	19.324000	-4.490000
	114.249535	1362.218991	19.346000	-4.540000
	114.349540	1362.199972	19.348000	-4.660000
	114.449546	1362.199972	19.356000	-4.500000
	114.549552	1362.194028	19.372000	-4.550000
	114.649558	1362.183330	19.358000	-4.590000
	114.749563	1362.178575	19.346000	-4.540000
	114.849569	1362.180953	19.342000	-4.480000
	114.949574	1362.176198	19.366000	-4.540000
	115.049581	1362.177387	19.358000	-4.490000
	115.149586	1362.179764	19.354000	-4.480000
	115.249592	1362.180953	19.338000	-4.490000
	115.355598	1362.178575	19.326000	-4.520000
	115.449603	1362.190463	19.336000	-4.400000
	115.549609	1362.190463	19.336000	-4.400000
	115.649615	1362.196407	19.330000	-4.450000
	115.749620	1362.203540	19.352000	-4.440000
	115.849626	1362.198785	19.352000	-4.540000
	115.949632	1362.195219	19.342000	-4.530000
	116.049638	1362.196407	19.352000	-4.490000
	116.149643	1362.194030	19.340000	-4.520000
	116.249649	1362.198785	19.348000	-4.460000
	116.349655	1362.209484	19.334000	-4.410000
	116.449660	1362.210673	19.332000	-4.490000
	116.549666	1362.216617	19.350000	-4.450000
	116.649672	1362.215428	19.344000	-4.510000
	116.749678	1362.217805	19.314000	-4.480000
	116.849683	1362.217805	19.334000	-4.500000
	116.954690	1362.221372	19.340000	-4.470000
	117.049695	1362.220183	19.334000	-4.510000
	117.149701	1362.221372	19.334000	-4.490000
	117.249706	1362.221372	19.334000	-4.490000
	117.349712	1362.227316	19.324000	-4.450000
	117.449718	1362.240393	19.338000	-4.390000
	117.549724	1362.238015	19.344000	-4.520000
	117.649729	1362.242770	19.322000	-4.460000
	117.749735	1362.239204	19.324000	-4.530000
	117.849741	1362.238015	19.336000	-4.510000
	117.949746	1362.241582	19.344000	-4.470000
	118.049752	1362.246337	19.332000	-4.460000
	118.149758	1362.241582	19.344000	-4.540000
	118.249763	1362.243959	19.338000	-4.480000
	118.349769	1362.248715	19.320000	-4.460000
	118.451775	1362.248715	19.314000	-4.500000
	118.549781	1362.249903	19.346000	-4.490000
	118.652787	1362.259414	19.328000	-4.420000
	118.749792	1362.255848	19.336000	-4.530000
	118.849798	1362.253470	19.344000	-4.520000
	118.949803	1362.245149	19.340000	-4.570000
	119.049809	1362.241583	19.332000	-4.530000
	119.149815	1362.245149	19.340000	-4.470000
	119.249821	1362.242771	19.336000	-4.520000
	119.399829	1362.242771	19.336000	-4.520000
	119.499835	1362.245149	19.352000	-4.480000
	119.599841	1362.241583	19.344000	-4.530000
	119.699846	1362.239205	19.326000	-4.520000
	119.799852	1362.236828	19.330000	-4.520000
	119.899858	1362.241583	19.344000	-4.460000
	119.999864	1362.235639	19.346000	-4.550000
	120.099869	1362.239205	19.330000	-4.470000
	120.199875	1362.240394	19.340000	-4.490000
	120.299881	1362.243961	19.324000	-4.470000
	120.399887	1362.239206	19.336000	-4.540000
	120.499892	1362.239206	19.322000	-4.500000
	120.599898	1362.239206	19.330000	-4.500000
	120.699903	1362.239206	19.336000	-4.500000
	120.799910	1362.240394	19.338000	-4.490000
	120.849912	1362.239206	19.348000	-4.510000
	120.999921	1362.239206	19.348000	-4.510000
	121.099926	1362.242772	19.334000	-4.470000
	121.199932	1362.246338	19.320000	-4.470000
	121.299938	1362.246338	19.314000	-4.500000
	121.399944	1362.248716	19.330000	-4.480000
	121.499949	1362.252282	19.350000	-4.470000
	121.599955	1362.251094	19.334000	-4.510000
	121.699961	1362.249905	19.326000	-4.510000
	121.799967	1362.251094	19.346000	-4.490000
	121.899972	1362.248716	19.338000	-4.520000
	121.999978	1362.245150	19.340000	-4.530000
	122.099984	1362.234451	19.334000	-4.590000
	122.199989	1362.223753	19.346000	-4.590000
	122.299995	1362.220186	19.348000	-4.530000
	122.400001	1362.221375	19.344000	-4.490000
	122.500007	1362.217809	19.344000	-4.530000
	122.605012	1362.213054	19.348000	-4.540000
	122.700018	1362.214243	19.340000	-4.490000
	122.800024	1362.214243	19.340000	-4.490000
	122.900030	1362.215431	19.340000	-4.490000
	123.000035	1362.211865	19.342000	-4.530000
	123.100041	1362.209488	19.360000	-4.520000
	123.200047	1362.205921	19.360000	-4.530000
	123.300052	1362.197600	19.346000	-4.570000
	123.400058	1362.196412	19.344000	-4.510000
	123.500064	1362.186902	19.336000	-4.580000
	123.600070	1362.182147	19.358000	-4.540000
	123.700075	1362.180959	19.352000	-4.510000
	123.800081	1362.175015	19.350000	-4.550000
	123.900087	1362.172638	19.354000	-4.520000
	124.000093	1362.172638	19.348000	-4.500000
	124.100098	1362.167883	19.346000	-4.540000
	124.201104	1362.160751	19.338000	-4.560000
	124.300109	1362.160751	19.348000	-4.500000
	124.400115	1362.161939	19.360000	-4.490000
	124.500121	1362.167883	19.328000	-4.450000
	124.600127	1362.164317	19.350000	-4.530000
	124.699132	1362.167883	19.346000	-4.470000
	124.799138	1362.177393	19.334000	-4.420000
	124.899144	1362.186903	19.336000	-4.420000
	125.049152	1362.188092	19.344000	-4.490000
	125.149158	1362.199980	19.326000	-4.400000
	125.249164	1362.201169	19.334000	-4.490000
	125.349170	1362.203546	19.330000	-4.480000
	125.449175	1362.204735	19.342000	-4.490000
	125.549181	1362.214245	19.340000	-4.420000
	125.649187	1362.215434	19.336000	-4.490000
	125.749192	1362.221378	19.344000	-4.450000
	125.899201	1362.221378	19.344000	-4.450000
	125.999207	1362.220189	19.334000	-4.510000
	126.099213	1362.222567	19.334000	-4.480000
	126.199218	1362.224944	19.350000	-4.480000
	126.299224	1362.230888	19.342000	-4.450000
	126.399230	1362.233266	19.334000	-4.480000
	126.499235	1362.226133	19.348000	-4.560000
	126.599241	1362.222567	19.336000	-4.530000
	126.699247	1362.222567	19.340000	-4.500000
	126.799253	1362.221378	19.336000	-4.510000
	126.899258	1362.222567	19.334000	-4.490000
	126.999264	1362.216623	19.328000	-4.550000
	127.099270	1362.217812	19.318000	-4.490000
	127.199275	1362.221379	19.344000	-4.470000
	127.299281	1362.219001	19.348000	-4.520000
	127.359284	1362.222567	19.326000	-4.470000
	127.499292	1362.220190	19.344000	-4.520000
	127.599298	1362.222567	19.332000	-4.480000
	127.699304	1362.222567	19.334000	-4.500000
	127.799310	1362.215435	19.334000	-4.560000
	127.899315	1362.215435	19.334000	-4.560000
	127.999321	1362.213058	19.338000	-4.520000
	128.099327	1362.220190	19.314000	-4.440000
	128.199333	1362.216624	19.326000	-4.530000
	128.299338	1362.222568	19.348000	-4.450000
	128.399344	1362.224945	19.326000	-4.480000
	128.499350	1362.224945	19.338000	-4.500000
	128.599356	1362.221379	19.346000	-4.530000
	128.699361	1362.221379	19.322000	-4.500000
	128.799367	1362.222568	19.346000	-4.490000
	128.899373	1362.223757	19.344000	-4.490000
	128.999378	1362.224946	19.328000	-4.490000
	129.105384	1362.223757	19.310000	-4.510000
	129.199390	1362.228512	19.324000	-4.460000
	129.299396	1362.228512	19.344000	-4.500000
	129.399401	1362.238022	19.330000	-4.420000
	129.499407	1362.241589	19.346000	-4.470000
	129.599413	1362.241589	19.346000	-4.470000
	129.701418	1362.243966	19.336000	-4.480000
	129.799424	1362.242778	19.334000	-4.510000
	129.899430	1362.248722	19.340000	-4.450000
	129.999435	1362.248722	19.332000	-4.500000
	130.099442	1362.255855	19.330000	-4.440000
	130.199447	1362.253477	19.336000	-4.520000
	130.299453	1362.254666	19.344000	-4.490000
	130.399458	1362.258232	19.320000	-4.470000
	130.499464	1362.260610	19.340000	-4.480000
	130.600470	1362.257043	19.358000	-4.530000
	130.699476	1362.253477	19.326000	-4.530000
	130.799481	1362.253477	19.334000	-4.500000
	130.899487	1362.261799	19.334000	-4.430000
	130.999493	1362.262988	19.324000	-4.490000
	131.099498	1362.261799	19.332000	-4.510000
	131.199504	1362.262988	19.336000	-4.490000
	131.299510	1362.260610	19.332000	-4.520000
	131.399516	1362.261799	19.338000	-4.490000
	131.549524	1362.258233	19.312000	-4.530000
	131.649530	1362.261799	19.326000	-4.470000
	131.749536	1362.261799	19.326000	-4.470000
	131.849541	1362.261799	19.328000	-4.500000
	131.949547	1362.251100	19.314000	-4.590000
	132.049553	1362.255856	19.318000	-4.460000
	132.149559	1362.257044	19.338000	-4.490000
	132.252564	1362.264177	19.316000	-4.440000
	132.349570	1362.271310	19.322000	-4.440000
	132.449576	1362.270121	19.328000	-4.510000
	132.549582	1362.270121	19.342000	-4.500000
	132.649587	1362.265366	19.336000	-4.540000
	132.749593	1362.264178	19.316000	-4.510000
	132.849598	1362.260611	19.320000	-4.530000
	132.949605	1362.268933	19.308000	-4.430000
	133.050610	1362.271311	19.326000	-4.480000
	133.149616	1362.270122	19.332000	-4.510000
	133.249621	1362.265367	19.334000	-4.540000
	133.349627	1362.262989	19.336000	-4.520000
	133.449633	1362.265367	19.326000	-4.480000
	133.549639	1362.267744	19.324000	-4.480000
	133.649644	1362.262989	19.328000	-4.540000
	133.749650	1362.259423	19.324000	-4.530000
	133.899659	1362.259423	19.330000	-4.500000
	133.999664	1362.255857	19.324000	-4.530000
	134.099670	1362.258234	19.342000	-4.480000
	134.199676	1362.259423	19.322000	-4.490000
	134.299682	1362.262989	19.318000	-4.470000
	134.399687	1362.264178	19.304000	-4.490000
	134.499693	1362.261801	19.322000	-4.520000
	134.649702	1362.262989	19.318000	-4.490000
	134.749707	1362.264178	19.318000	-4.490000
	134.849713	1362.264178	19.318000	-4.490000
	134.949718	1362.260612	19.310000	-4.530000
	135.049725	1362.258234	19.318000	-4.520000
	135.149730	1362.260612	19.328000	-4.480000
	135.249736	1362.270123	19.330000	-4.420000
	135.349741	1362.271311	19.332000	-4.490000
	135.449747	1362.277256	19.330000	-4.450000
	135.549753	1362.276067	19.330000	-4.510000
	135.649759	1362.271312	19.336000	-4.540000
	135.749764	1362.270123	19.334000	-4.510000
	135.849770	1362.266556	19.342000	-4.530000
	135.949776	1362.258235	19.320000	-4.570000
	136.049782	1362.260613	19.320000	-4.480000
	136.153788	1362.261801	19.326000	-4.490000
	136.249793	1362.262990	19.346000	-4.490000
	136.349799	1362.262990	19.324000	-4.500000
	136.449804	1362.268934	19.304000	-4.450000
	136.549810	1362.267746	19.330000	-4.510000
	136.649816	1362.267746	19.330000	-4.510000
	136.749822	1362.271312	19.332000	-4.470000
	136.849827	1362.268934	19.344000	-4.520000
	136.966834	1362.268934	19.328000	-4.500000
	137.049839	1362.268934	19.332000	-4.500000
	137.149845	1362.260613	19.316000	-4.570000
	137.249850	1362.261802	19.324000	-4.490000
	137.349856	1362.265368	19.300000	-4.470000
	137.450862	1362.272501	19.332000	-4.440000
	137.549868	1362.274879	19.302000	-4.480000
	137.649873	1362.276068	19.308000	-4.490000
	137.752879	1362.273690	19.330000	-4.520000
	137.849885	1362.272501	19.328000	-4.510000
	137.949890	1362.274879	19.336000	-4.480000
	138.049896	1362.266558	19.324000	-4.570000
	138.149902	1362.268935	19.350000	-4.480000
	138.249907	1362.268935	19.350000	-4.480000
	138.349913	1362.278446	19.342000	-4.420000
	138.449919	1362.277257	19.320000	-4.510000
	138.549924	1362.285579	19.326000	-4.430000
	138.649930	1362.286768	19.314000	-4.490000
	138.749936	1362.285579	19.336000	-4.510000
	138.849942	1362.284390	19.322000	-4.510000
	138.949947	1362.282013	19.336000	-4.520000
	139.049953	1362.280824	19.306000	-4.510000
	139.149959	1362.280824	19.322000	-4.500000
	139.249965	1362.286768	19.314000	-4.450000
	139.349970	1362.295090	19.308000	-4.430000
	139.457976	1362.285580	19.310000	-4.580000
	139.549982	1362.286769	19.300000	-4.490000
	139.649988	1362.274881	19.302000	-4.600000
	139.749993	1362.276070	19.320000	-4.490000
	139.849999	1362.278447	19.314000	-4.480000
	139.950005	1362.274881	19.324000	-4.530000
	140.050010	1362.273692	19.324000	-4.510000
	140.202019	1362.272503	19.304000	-4.510000
	140.300025	1362.272503	19.324000	-4.500000
	140.400031	1362.272503	19.318000	-4.500000
	140.500036	1362.272503	19.316000	-4.500000
	140.600042	1362.272503	19.314000	-4.500000
	140.750051	1362.272503	19.320000	-4.500000
	140.850056	1362.272503	19.320000	-4.500000
	140.950062	1362.273692	19.316000	-4.490000
	141.050067	1362.273692	19.324000	-4.500000
	141.150074	1362.278448	19.322000	-4.460000
	141.250079	1362.278448	19.334000	-4.500000
	141.350085	1362.287958	19.328000	-4.420000
	141.450090	1362.293903	19.320000	-4.450000
	141.550096	1362.293903	19.318000	-4.500000
	141.650102	1362.292714	19.340000	-4.510000
	141.750108	1362.295091	19.312000	-4.480000
	141.850113	1362.286770	19.344000	-4.570000
	141.950119	1362.286770	19.316000	-4.500000
	142.050125	1362.276071	19.320000	-4.590000
	142.149130	1362.274882	19.320000	-4.510000
	142.249136	1362.284393	19.324000	-4.420000
	142.351142	1362.283204	19.338000	-4.510000
	142.449148	1362.287959	19.312000	-4.460000
	142.549153	1362.291526	19.314000	-4.470000
	142.649159	1362.285582	19.308000	-4.550000
	142.749165	1362.278449	19.308000	-4.560000
	142.849171	1362.273694	19.318000	-4.540000
	142.949176	1362.280827	19.324000	-4.440000
	143.049182	1362.277261	19.322000	-4.530000
	143.149188	1362.274883	19.316000	-4.520000
	143.249193	1362.274883	19.316000	-4.520000
	143.349199	1362.279638	19.314000	-4.460000
	143.449205	1362.274883	19.326000	-4.540000
	143.549211	1362.270128	19.314000	-4.540000
	143.649216	1362.273695	19.344000	-4.470000
	143.749222	1362.271317	19.312000	-4.520000
	143.849228	1362.272506	19.316000	-4.490000
	143.949234	1362.271317	19.328000	-4.510000
	144.053239	1362.267751	19.322000	-4.530000
	144.149245	1362.271317	19.326000	-4.470000
	144.249250	1362.274884	19.334000	-4.470000
	144.349257	1362.274884	19.328000	-4.500000
	144.449262	1362.276072	19.328000	-4.490000
	144.549268	1362.282017	19.320000	-4.450000
	144.649273	1362.272506	19.328000	-4.580000
	144.799282	1362.274884	19.322000	-4.480000
	144.899288	1362.274884	19.338000	-4.500000
	144.999293	1362.279639	19.324000	-4.460000
	145.099299	1362.277262	19.314000	-4.520000
	145.199305	1362.278451	19.318000	-4.490000
	145.299311	1362.279639	19.314000	-4.490000
	145.399316	1362.280828	19.332000	-4.490000
	145.499322	1362.279639	19.322000	-4.510000
	145.649331	1362.274884	19.330000	-4.540000
	145.749336	1362.279640	19.338000	-4.460000
	145.849342	1362.279640	19.338000	-4.460000
	145.949348	1362.280828	19.306000	-4.490000
	146.049354	1362.282017	19.332000	-4.490000
	146.149359	1362.279640	19.326000	-4.520000
	146.249365	1362.277262	19.314000	-4.520000
	146.349370	1362.271318	19.344000	-4.550000
	146.449377	1362.268940	19.318000	-4.520000
	146.549382	1362.265374	19.338000	-4.530000
	146.649388	1362.279640	19.326000	-4.380000
	146.749393	1362.276074	19.346000	-4.530000
	146.849399	1362.274885	19.328000	-4.510000
	146.949405	1362.271319	19.316000	-4.530000
	147.049411	1362.267752	19.308000	-4.530000
	147.157417	1362.261809	19.354000	-4.550000
	147.249422	1362.262997	19.324000	-4.490000
	147.349428	1362.259431	19.344000	-4.530000
	147.449434	1362.261809	19.338000	-4.480000
	147.549439	1362.253487	19.334000	-4.570000
	147.649445	1362.252299	19.312000	-4.510000
	147.749451	1362.253487	19.324000	-4.490000
	147.899459	1362.254676	19.338000	-4.490000
	147.999465	1362.254676	19.338000	-4.490000
	148.099471	1362.248732	19.312000	-4.550000
	148.199477	1362.252299	19.318000	-4.470000
	148.299482	1362.253487	19.320000	-4.490000
	148.399488	1362.254676	19.330000	-4.490000
	148.499494	1362.248732	19.306000	-4.550000
	148.599499	1362.251110	19.326000	-4.480000
	148.699505	1362.251110	19.324000	-4.500000
	148.799511	1362.253488	19.332000	-4.480000
	148.899517	1362.254676	19.314000	-4.490000
	148.999522	1362.258243	19.316000	-4.470000
	149.099528	1362.265376	19.312000	-4.440000
	149.199534	1362.258243	19.310000	-4.560000
	149.299540	1362.253488	19.314000	-4.540000
	149.404545	1362.253488	19.338000	-4.500000
	149.499551	1362.262999	19.320000	-4.420000
	149.599556	1362.262999	19.320000	-4.420000
	149.699562	1362.262999	19.336000	-4.500000
	149.799568	1362.261810	19.326000	-4.510000
	149.899574	1362.265376	19.320000	-4.470000
	149.999579	1362.265376	19.320000	-4.500000
	150.099585	1362.267754	19.316000	-4.480000
	150.199591	1362.268943	19.314000	-4.490000
	150.299597	1362.277265	19.314000	-4.430000
	150.399602	1362.277265	19.330000	-4.500000
	150.499608	1362.274887	19.318000	-4.520000
	150.599614	1362.277265	19.308000	-4.480000
	150.699619	1362.279642	19.332000	-4.480000
	150.799625	1362.282020	19.328000	-4.480000
	150.899631	1362.282020	19.314000	-4.500000
	151.001637	1362.280831	19.334000	-4.510000
	151.099642	1362.277265	19.326000	-4.530000
	151.199648	1362.279642	19.322000	-4.480000
	151.299654	1362.279642	19.338000	-4.500000
	151.399660	1362.279642	19.338000	-4.500000
	151.499665	1362.284398	19.318000	-4.460000
	151.599671	1362.282020	19.318000	-4.520000
	151.699677	1362.277265	19.328000	-4.540000
	151.801682	1362.276076	19.330000	-4.510000
	151.899688	1362.270132	19.316000	-4.550000
	152.001694	1362.263000	19.330000	-4.560000
	152.099699	1362.257056	19.326000	-4.550000
	152.199705	1362.254678	19.318000	-4.520000
	152.299711	1362.263000	19.310000	-4.430000
	152.406717	1362.268944	19.330000	-4.450000
	152.499722	1362.271322	19.306000	-4.480000
	152.600729	1362.270133	19.322000	-4.510000
	152.699734	1362.266567	19.320000	-4.530000
	152.799740	1362.263000	19.306000	-4.530000
	152.899745	1362.270133	19.320000	-4.440000
	152.999751	1362.266567	19.330000	-4.530000
	153.149760	1362.271322	19.332000	-4.460000
	153.249765	1362.274889	19.328000	-4.470000
	153.349771	1362.276077	19.328000	-4.490000
	153.449777	1362.277266	19.318000	-4.490000
	153.549782	1362.276077	19.322000	-4.510000
	153.649788	1362.282022	19.336000	-4.450000
	153.749794	1362.274889	19.332000	-4.560000
	153.899803	1362.282022	19.324000	-4.440000
	153.999808	1362.282022	19.324000	-4.440000
	154.099814	1362.274889	19.338000	-4.560000
	154.199820	1362.267757	19.322000	-4.560000
	154.299825	1362.278456	19.320000	-4.410000
	154.399831	1362.282023	19.320000	-4.470000
	154.499837	1362.280834	19.310000	-4.510000
	154.599843	1362.284400	19.328000	-4.470000
	154.699848	1362.286778	19.328000	-4.480000
	154.799854	1362.287967	19.292000	-4.490000
	154.899860	1362.291533	19.320000	-4.470000
	154.999866	1362.293911	19.312000	-4.480000
	155.099871	1362.293911	19.312000	-4.500000
	155.199877	1362.292722	19.314000	-4.510000
	155.300883	1362.293911	19.332000	-4.490000
	155.399889	1362.292722	19.324000	-4.510000
	155.499894	1362.292722	19.326000	-4.500000
	155.599900	1362.296289	19.340000	-4.470000
	155.699905	1362.292722	19.318000	-4.530000
	155.799911	1362.296289	19.314000	-4.470000
	155.904917	1362.293911	19.330000	-4.520000
	155.999923	1362.297478	19.326000	-4.470000
	156.099928	1362.297478	19.326000	-4.470000
	156.199934	1362.302233	19.330000	-4.460000
	156.299940	1362.303422	19.324000	-4.490000
	156.399946	1362.309366	19.330000	-4.450000
	156.499951	1362.309366	19.324000	-4.500000
	156.599957	1362.306989	19.326000	-4.520000
	156.702963	1362.305800	19.304000	-4.510000
	156.799968	1362.306989	19.320000	-4.490000
	156.899974	1362.308177	19.310000	-4.490000
	156.999980	1362.296290	19.318000	-4.600000
	157.101986	1362.287968	19.304000	-4.570000
	157.213992	1362.289157	19.328000	-4.490000
	157.310997	1362.289157	19.310000	-4.500000
	157.400003	1362.287968	19.328000	-4.510000
	157.550011	1362.284402	19.322000	-4.530000
	157.650017	1362.292724	19.320000	-4.430000
	157.750023	1362.289157	19.318000	-4.530000
	157.850029	1362.285591	19.306000	-4.530000
	157.958035	1362.290346	19.334000	-4.460000
	158.054040	1362.291535	19.342000	-4.490000
	158.151046	1362.292724	19.320000	-4.490000
	158.250051	1362.292724	19.320000	-4.490000
	158.350057	1362.292724	19.326000	-4.500000
	158.450063	1362.293913	19.312000	-4.490000
	158.550068	1362.293913	19.304000	-4.500000
	158.650074	1362.292724	19.314000	-4.510000
	158.750080	1362.296290	19.316000	-4.470000
	158.850086	1362.297479	19.316000	-4.490000
	158.950091	1362.299857	19.324000	-4.480000
	159.050097	1362.295102	19.312000	-4.540000
	159.151103	1362.290346	19.326000	-4.540000
	159.250109	1362.289158	19.312000	-4.510000
	159.350114	1362.285591	19.310000	-4.530000
	159.450120	1362.289158	19.314000	-4.470000
	159.550126	1362.289158	19.308000	-4.500000
	159.649131	1362.285591	19.336000	-4.530000
	159.749137	1362.292724	19.326000	-4.440000
	159.849143	1362.289158	19.342000	-4.530000
	159.949149	1362.289158	19.342000	-4.530000
	160.049154	1362.295102	19.320000	-4.450000
	160.149160	1362.296291	19.328000	-4.490000
	160.249166	1362.295102	19.320000	-4.510000
	160.349172	1362.297480	19.310000	-4.480000
	160.449177	1362.299857	19.324000	-4.480000
	160.549183	1362.310557	19.326000	-4.410000
	160.649189	1362.304613	19.324000	-4.550000
	160.749194	1362.297481	19.324000	-4.560000
	160.850200	1362.295103	19.318000	-4.520000
	160.949206	1362.297481	19.332000	-4.480000
	161.049212	1362.296292	19.324000	-4.510000
	161.149217	1362.293914	19.320000	-4.520000
	161.249223	1362.297481	19.332000	-4.470000
	161.349228	1362.292725	19.336000	-4.540000
	161.449234	1362.295103	19.326000	-4.480000
	161.549240	1362.296292	19.316000	-4.490000
	161.699249	1362.296292	19.316000	-4.490000
	161.799254	1362.298670	19.314000	-4.480000
	161.899260	1362.302236	19.312000	-4.470000
	161.999266	1362.312936	19.318000	-4.410000
	162.099271	1362.308181	19.326000	-4.540000
	162.199277	1362.309370	19.314000	-4.490000
	162.299283	1362.310558	19.328000	-4.490000
	162.399289	1362.312936	19.332000	-4.480000
	162.499294	1362.310558	19.314000	-4.520000
	162.599300	1362.305803	19.324000	-4.540000
	162.699306	1362.301048	19.324000	-4.540000
	162.799312	1362.304614	19.302000	-4.470000
	162.899317	1362.302237	19.330000	-4.520000
	162.999323	1362.298670	19.310000	-4.530000
	163.099329	1362.293915	19.314000	-4.540000
	163.199335	1362.296293	19.320000	-4.480000
	163.249337	1362.302237	19.310000	-4.450000
	163.399346	1362.297482	19.314000	-4.540000
	163.499352	1362.297482	19.306000	-4.500000
	163.599357	1362.293915	19.320000	-4.530000
	163.699363	1362.297482	19.328000	-4.470000
	163.799369	1362.303426	19.324000	-4.450000
	163.899374	1362.305804	19.330000	-4.480000
	164.049383	1362.311748	19.314000	-4.450000
	164.149389	1362.303427	19.324000	-4.570000
	164.249394	1362.305804	19.318000	-4.480000
	164.349400	1362.304615	19.326000	-4.510000
	164.449406	1362.308182	19.328000	-4.470000
	164.549412	1362.311749	19.334000	-4.470000
	164.649417	1362.312937	19.324000	-4.490000
	164.749423	1362.318882	19.318000	-4.450000
	164.899432	1362.322448	19.328000	-4.470000
	164.999437	1362.322448	19.328000	-4.470000
	165.099443	1362.316504	19.314000	-4.550000
	165.199449	1362.309371	19.310000	-4.560000
	165.299455	1362.306994	19.326000	-4.520000
	165.399460	1362.306994	19.308000	-4.500000
	165.499466	1362.310560	19.324000	-4.470000
	165.599472	1362.311749	19.312000	-4.490000
	165.699478	1362.315316	19.310000	-4.470000
	165.799483	1362.311749	19.314000	-4.530000
	165.899489	1362.311749	19.336000	-4.500000
	165.999495	1362.312938	19.320000	-4.490000
	166.099500	1362.316505	19.310000	-4.470000
	166.199506	1362.309372	19.306000	-4.560000
	166.300512	1362.305805	19.302000	-4.530000
	166.399518	1362.299861	19.320000	-4.550000
	166.499523	1362.298672	19.326000	-4.510000
	166.599529	1362.297483	19.328000	-4.510000
	166.699535	1362.303428	19.316000	-4.450000
	166.799541	1362.303428	19.316000	-4.450000
	166.899546	1362.304617	19.326000	-4.490000
	166.999552	1362.301050	19.314000	-4.530000
	167.099557	1362.302239	19.312000	-4.490000
	167.199564	1362.304617	19.326000	-4.480000
	167.299569	1362.308183	19.316000	-4.470000
	167.399575	1362.311750	19.308000	-4.470000
	167.507581	1362.306994	19.322000	-4.540000
	167.599586	1362.310561	19.330000	-4.470000
	167.699592	1362.311750	19.306000	-4.490000
	167.799598	1362.312939	19.320000	-4.490000
	167.899603	1362.320072	19.318000	-4.440000
	168.049612	1362.318883	19.322000	-4.510000
	168.149618	1362.312939	19.336000	-4.550000
	168.249623	1362.311750	19.302000	-4.510000
	168.349629	1362.314128	19.316000	-4.480000
	168.450635	1362.314128	19.316000	-4.480000
	168.599643	1362.311750	19.326000	-4.520000
	168.699649	1362.306995	19.322000	-4.540000
	168.799655	1362.309373	19.310000	-4.480000
	168.899661	1362.308184	19.340000	-4.510000
	168.999666	1362.306995	19.320000	-4.510000
	169.099672	1362.301051	19.346000	-4.550000
	169.199677	1362.303429	19.338000	-4.480000
	169.299684	1362.310562	19.316000	-4.440000
	169.404689	1362.305806	19.322000	-4.540000
	169.499695	1362.305806	19.322000	-4.540000
	169.599700	1362.305806	19.310000	-4.500000
	169.699706	1362.302240	19.322000	-4.530000
	169.799712	1362.303429	19.328000	-4.490000
	169.899718	1362.302240	19.314000	-4.510000
	169.999723	1362.312940	19.312000	-4.410000
	170.099729	1362.311751	19.350000	-4.510000
	170.199735	1362.298674	19.334000	-4.610000
	170.303741	1362.303430	19.324000	-4.460000
	170.412747	1362.302241	19.330000	-4.510000
	170.499752	1362.302241	19.330000	-4.510000
	170.599758	1362.304619	19.332000	-4.480000
	170.699763	1362.315319	19.310000	-4.410000
	170.799769	1362.312941	19.324000	-4.520000
	170.899775	1362.315319	19.322000	-4.480000
	170.999781	1362.317696	19.326000	-4.480000
	171.099786	1362.317696	19.320000	-4.500000
	171.199792	1362.315319	19.308000	-4.520000
	171.306798	1362.311752	19.338000	-4.530000
	171.399804	1362.308186	19.338000	-4.530000
	171.499809	1362.309375	19.324000	-4.490000
	171.599815	1362.308186	19.314000	-4.510000
	171.699821	1362.303431	19.316000	-4.540000
	171.849829	1362.306997	19.322000	-4.470000
	171.949835	1362.311753	19.322000	-4.460000
	172.049841	1362.310564	19.336000	-4.510000
	172.149847	1362.305808	19.332000	-4.540000
	172.249852	1362.305808	19.340000	-4.500000
	172.399861	1362.302242	19.326000	-4.530000
	172.499866	1362.296298	19.326000	-4.550000
	172.599872	1362.291543	19.338000	-4.540000
	172.699878	1362.293920	19.332000	-4.480000
	172.849886	1362.298676	19.326000	-4.460000
	172.949892	1362.298676	19.336000	-4.500000
	173.049898	1362.298676	19.340000	-4.500000
	173.149904	1362.310565	19.340000	-4.400000
	173.299912	1362.311753	19.318000	-4.490000
	173.399918	1362.312942	19.326000	-4.490000
	173.499924	1362.312942	19.326000	-4.490000
	173.599929	1362.311753	19.336000	-4.510000
	173.699935	1362.314131	19.354000	-4.480000
	173.799941	1362.314131	19.326000	-4.500000
	173.899947	1362.316509	19.332000	-4.480000
	173.999952	1362.318887	19.334000	-4.480000
	174.099958	1362.312942	19.312000	-4.550000
	174.199964	1362.314131	19.348000	-4.490000
	174.299969	1362.308187	19.348000	-4.550000
	174.399975	1362.173897	19.238000	-5.630000
	174.500981	1362.277363	19.048000	-3.630000
	174.599987	1362.320168	19.094000	-4.140000
	174.699992	1362.371299	19.114000	-4.070000
	174.799998	1362.412917	19.090000	-4.150000
	174.900004	1362.441454	19.090000	-4.260000
	175.000010	1362.465236	19.120000	-4.300000
	175.100015	1362.493774	19.080000	-4.260000
	175.200021	1362.504476	19.124000	-4.410000
	175.350029	1362.521123	19.104000	-4.360000
	175.450035	1362.529446	19.110000	-4.430000
	175.550041	1362.529446	19.110000	-4.430000
	175.650047	1362.542526	19.100000	-4.390000
	175.750052	1362.553228	19.108000	-4.410000
	175.850058	1362.565119	19.104000	-4.400000
	175.950064	1362.572254	19.092000	-4.440000
	176.050069	1362.581767	19.106000	-4.420000
	176.150075	1362.581767	19.102000	-4.500000
	176.250081	1362.578199	19.088000	-4.530000
	176.350087	1362.577010	19.112000	-4.510000
	176.450092	1362.574632	19.088000	-4.520000
	176.550098	1362.577010	19.110000	-4.480000
	176.650104	1362.579388	19.092000	-4.480000
	176.750110	1362.588901	19.128000	-4.420000
	176.850115	1362.596036	19.100000	-4.440000
	176.957121	1362.593658	19.114000	-4.520000
	177.050127	1362.598414	19.110000	-4.460000
	177.149132	1362.599603	19.114000	-4.490000
	177.249138	1362.599603	19.114000	-4.490000
	177.349144	1362.600793	19.080000	-4.490000
	177.449150	1362.604360	19.078000	-4.470000
	177.549155	1362.612684	19.096000	-4.430000
	177.649161	1362.613873	19.102000	-4.490000
	177.749166	1362.606739	19.106000	-4.560000
	177.849173	1362.605549	19.090000	-4.510000
	177.949178	1362.598415	19.094000	-4.560000
	178.049184	1362.598415	19.086000	-4.500000
	178.149189	1362.599604	19.102000	-4.490000
	178.249195	1362.597226	19.076000	-4.520000
	178.349201	1362.601982	19.110000	-4.460000
	178.449207	1362.597226	19.112000	-4.540000
	178.551212	1362.600793	19.106000	-4.470000
	178.649218	1362.607928	19.100000	-4.440000
	178.749224	1362.616252	19.096000	-4.430000
	178.849230	1362.609118	19.100000	-4.560000
	178.949235	1362.605550	19.104000	-4.530000
	179.049241	1362.603172	19.092000	-4.520000
	179.149247	1362.606740	19.088000	-4.470000
	179.249252	1362.603172	19.100000	-4.530000
	179.349258	1362.601983	19.102000	-4.510000
	179.499267	1362.603172	19.092000	-4.490000
	179.599273	1362.606740	19.116000	-4.470000
	179.699278	1362.606740	19.088000	-4.500000
	179.799284	1362.604361	19.118000	-4.520000
	179.899290	1362.603172	19.078000	-4.510000
	179.999295	1362.599605	19.100000	-4.530000
	180.099301	1362.597227	19.106000	-4.520000
	180.199307	1362.597227	19.106000	-4.520000
	180.299313	1362.596038	19.110000	-4.510000
	180.399318	1362.604362	19.108000	-4.430000
	180.499324	1362.609118	19.104000	-4.460000
	180.599329	1362.611496	19.102000	-4.480000
	180.699336	1362.606740	19.080000	-4.540000
	180.799341	1362.606740	19.088000	-4.500000
	180.899347	1362.603173	19.084000	-4.530000
	181.003353	1362.600795	19.104000	-4.520000
	181.099358	1362.600795	19.100000	-4.500000
	181.199364	1362.605551	19.086000	-4.460000
	181.299370	1362.605551	19.106000	-4.500000
	181.399375	1362.599606	19.082000	-4.550000
	181.499381	1362.603173	19.108000	-4.470000
	181.599387	1362.606740	19.098000	-4.470000
	181.699393	1362.612686	19.110000	-4.450000
	181.799398	1362.611497	19.096000	-4.510000
	181.949407	1362.609119	19.090000	-4.520000
	182.049413	1362.612686	19.106000	-4.470000
	182.149418	1362.612686	19.106000	-4.470000
	182.249424	1362.612686	19.098000	-4.500000
	182.349430	1362.609119	19.088000	-4.530000
	182.449436	1362.606741	19.092000	-4.520000
	182.549441	1362.601984	19.082000	-4.540000
	182.649447	1362.599606	19.088000	-4.520000
	182.749453	1362.598417	19.078000	-4.510000
	182.849458	1362.598417	19.094000	-4.500000
	182.949464	1362.603174	19.102000	-4.460000
	183.049470	1362.607930	19.084000	-4.460000
	183.149476	1362.611497	19.100000	-4.470000
	183.249481	1362.617443	19.116000	-4.450000
	183.349487	1362.615065	19.116000	-4.520000
	183.451493	1362.613876	19.102000	-4.510000
	183.549499	1362.617443	19.100000	-4.470000
	183.649504	1362.616254	19.108000	-4.510000
	183.749510	1362.616254	19.108000	-4.510000
	183.849515	1362.619821	19.098000	-4.470000
	183.949521	1362.617443	19.112000	-4.520000
	184.049527	1362.617443	19.100000	-4.500000
	184.149533	1362.613876	19.096000	-4.530000
	184.249538	1362.615065	19.096000	-4.490000
	184.349544	1362.615065	19.114000	-4.500000
	184.449550	1362.622200	19.116000	-4.440000
	184.549556	1362.618633	19.110000	-4.530000
	184.649561	1362.622200	19.088000	-4.470000
	184.749567	1362.623389	19.104000	-4.490000
	184.849573	1362.626956	19.096000	-4.470000
	184.949578	1362.628146	19.112000	-4.490000
	185.049584	1362.625767	19.120000	-4.520000
	185.156590	1362.630524	19.102000	-4.460000
	185.249596	1362.626957	19.112000	-4.530000
	185.349601	1362.625767	19.096000	-4.510000
	185.449607	1362.625767	19.096000	-4.510000
	185.549613	1362.625767	19.108000	-4.500000
	185.649619	1362.632902	19.110000	-4.440000
	185.749624	1362.634091	19.104000	-4.490000
	185.849630	1362.625768	19.098000	-4.570000
	185.949636	1362.621011	19.096000	-4.540000
	186.049642	1362.623390	19.112000	-4.480000
	186.149647	1362.623390	19.112000	-4.500000
	186.249653	1362.625768	19.094000	-4.480000
	186.349658	1362.621012	19.102000	-4.540000
	186.449664	1362.626957	19.080000	-4.450000
	186.549670	1362.624579	19.114000	-4.520000
	186.649676	1362.612688	19.100000	-4.600000
	186.750681	1362.613878	19.094000	-4.490000
	186.849687	1362.619823	19.106000	-4.450000
	186.949693	1362.615067	19.096000	-4.540000
	187.050699	1362.616256	19.102000	-4.490000
	187.149704	1362.613878	19.114000	-4.520000
	187.249710	1362.613878	19.114000	-4.520000
	187.349716	1362.611500	19.100000	-4.520000
	187.449721	1362.606743	19.102000	-4.540000
	187.549727	1362.611500	19.094000	-4.460000
	187.649733	1362.610311	19.110000	-4.510000
	187.749739	1362.609122	19.098000	-4.510000
	187.849744	1362.615067	19.092000	-4.450000
	187.965751	1362.616256	19.096000	-4.490000
	188.049756	1362.619824	19.112000	-4.470000
	188.149762	1362.613878	19.090000	-4.550000
	188.249767	1362.610311	19.110000	-4.530000
	188.349773	1362.612689	19.122000	-4.480000
	188.450779	1362.612689	19.110000	-4.500000
	188.599787	1362.612689	19.090000	-4.500000
	188.699793	1362.610311	19.080000	-4.520000
	188.799798	1362.612689	19.106000	-4.480000
	188.899805	1362.613878	19.102000	-4.490000
	189.049813	1362.613878	19.096000	-4.500000
	189.149819	1362.616257	19.106000	-4.480000
	189.249825	1362.615067	19.110000	-4.510000
	189.349830	1362.609122	19.104000	-4.550000
	189.499839	1362.609122	19.096000	-4.500000
	189.599844	1362.607933	19.098000	-4.510000
	189.699850	1362.605555	19.078000	-4.520000
	189.799856	1362.606744	19.096000	-4.490000
	189.955865	1362.604366	19.102000	-4.520000
	190.049870	1362.604366	19.114000	-4.500000
	190.149876	1362.600798	19.120000	-4.530000
	190.249882	1362.601988	19.116000	-4.490000
	190.349887	1362.600798	19.110000	-4.510000
	190.499896	1362.600798	19.092000	-4.500000
	190.599902	1362.600798	19.112000	-4.500000
	190.699907	1362.598420	19.090000	-4.520000
	190.799913	1362.591286	19.088000	-4.560000
	190.949922	1362.581774	19.110000	-4.580000
	191.049927	1362.577017	19.120000	-4.540000
	191.149933	1362.579396	19.106000	-4.480000
	191.249939	1362.582963	19.102000	-4.470000
	191.399947	1362.582963	19.102000	-4.470000
	191.499953	1362.588908	19.112000	-4.450000
	191.599959	1362.588908	19.098000	-4.500000
	191.699965	1362.596043	19.106000	-4.440000
	191.799970	1362.593665	19.098000	-4.520000
	191.899976	1362.594854	19.086000	-4.490000
	191.999982	1362.597232	19.116000	-4.480000
	192.099988	1362.598421	19.104000	-4.490000
	192.199993	1362.599610	19.114000	-4.490000
	192.299999	1362.605556	19.104000	-4.450000
	192.402005	1362.604367	19.100000	-4.510000
	192.500010	1362.610312	19.118000	-4.450000
	192.600016	1362.604367	19.104000	-4.550000
	192.700022	1362.601989	19.104000	-4.520000
	192.800027	1362.605556	19.118000	-4.470000
	192.900033	1362.596044	19.114000	-4.580000
	193.000039	1362.598422	19.120000	-4.480000
	193.100045	1362.606746	19.102000	-4.430000
	193.200050	1362.604368	19.108000	-4.520000
	193.300056	1362.601990	19.102000	-4.520000
	193.450065	1362.597233	19.112000	-4.540000
	193.550070	1362.597233	19.112000	-4.540000
	193.650076	1362.601990	19.124000	-4.460000
	193.750082	1362.598422	19.112000	-4.530000
	193.850088	1362.601990	19.108000	-4.470000
	193.950093	1362.598423	19.120000	-4.530000
	194.050099	1362.599612	19.106000	-4.490000
	194.150105	1362.588910	19.088000	-4.590000
	194.250111	1362.592477	19.096000	-4.470000
	194.350116	1362.596045	19.092000	-4.470000
	194.450122	1362.600801	19.116000	-4.460000
	194.550128	1362.600801	19.102000	-4.500000
	194.649133	1362.601990	19.110000	-4.490000
	194.755139	1362.604369	19.120000	-4.480000
	194.849145	1362.607936	19.098000	-4.470000
	194.949151	1362.613882	19.108000	-4.450000
	195.049156	1362.615071	19.112000	-4.490000
	195.149162	1362.605558	19.116000	-4.580000
	195.249167	1362.610315	19.100000	-4.460000
	195.349173	1362.607936	19.116000	-4.520000
	195.449179	1362.603180	19.104000	-4.540000
	195.549185	1362.603180	19.128000	-4.500000
	195.699193	1362.603180	19.128000	-4.500000
	195.799199	1362.598424	19.110000	-4.540000
	195.899205	1362.594857	19.096000	-4.530000
	195.999210	1362.600802	19.104000	-4.450000
	196.099216	1362.596046	19.112000	-4.540000
	196.199222	1362.599613	19.118000	-4.470000
	196.299228	1362.591290	19.094000	-4.570000
	196.399233	1362.591290	19.128000	-4.500000
	196.499239	1362.588912	19.098000	-4.520000
	196.599245	1362.590101	19.106000	-4.490000
	196.699251	1362.580588	19.092000	-4.580000
	196.799256	1362.588912	19.108000	-4.430000
	196.899262	1362.596047	19.108000	-4.440000
	196.999268	1362.598425	19.118000	-4.480000
	197.099273	1362.599614	19.108000	-4.490000
	197.202279	1362.605560	19.110000	-4.450000
	197.299285	1362.606749	19.114000	-4.490000
	197.401291	1362.606749	19.114000	-4.490000
	197.499296	1362.606749	19.106000	-4.500000
	197.599302	1362.600803	19.096000	-4.550000
	197.699308	1362.599614	19.108000	-4.510000
	197.799314	1362.598425	19.102000	-4.510000
	197.899319	1362.604371	19.116000	-4.450000
	197.999325	1362.610316	19.104000	-4.450000
	198.099330	1362.607938	19.100000	-4.520000
	198.199337	1362.607938	19.120000	-4.500000
	198.306343	1362.612695	19.100000	-4.460000
	198.399348	1362.616262	19.102000	-4.470000
	198.501354	1362.611506	19.108000	-4.540000
	198.599359	1362.612695	19.096000	-4.490000
	198.699365	1362.607939	19.088000	-4.540000
	198.799371	1362.607939	19.088000	-4.540000
	198.906377	1362.609128	19.120000	-4.490000
	199.001382	1362.607939	19.100000	-4.510000
	199.099388	1362.604371	19.096000	-4.530000
	199.203394	1362.600804	19.118000	-4.530000
	199.299399	1362.598426	19.124000	-4.520000
	199.399405	1362.596048	19.104000	-4.520000
	199.499411	1362.594859	19.118000	-4.510000
	199.652420	1362.592480	19.114000	-4.520000
	199.750425	1362.593670	19.098000	-4.490000
	199.849431	1362.593670	19.098000	-4.490000
	199.954437	1362.592481	19.092000	-4.510000
	200.049442	1362.598426	19.114000	-4.450000
	200.151448	1362.599615	19.114000	-4.490000
	200.249454	1362.600804	19.110000	-4.490000
	200.349459	1362.601993	19.118000	-4.490000
	200.449465	1362.601993	19.124000	-4.500000
	200.549471	1362.603182	19.108000	-4.490000
	200.649477	1362.599615	19.120000	-4.530000
	200.749482	1362.601993	19.102000	-4.480000
	200.856488	1362.598426	19.118000	-4.530000
	200.949493	1362.593670	19.118000	-4.540000
	201.049500	1362.594859	19.118000	-4.490000
	201.150505	1362.600805	19.110000	-4.450000
	201.249511	1362.607939	19.094000	-4.440000
	201.349516	1362.607939	19.100000	-4.500000
	201.449522	1362.605561	19.116000	-4.520000
	201.599531	1362.605561	19.104000	-4.500000
	201.699536	1362.599616	19.102000	-4.550000
	201.799542	1362.596049	19.110000	-4.530000
	201.899548	1362.596049	19.110000	-4.530000
	201.999554	1362.594859	19.082000	-4.510000
	202.099559	1362.594859	19.098000	-4.500000
	202.199565	1362.596049	19.110000	-4.490000
	202.299571	1362.596049	19.120000	-4.500000
	202.402577	1362.598427	19.122000	-4.480000
	202.499582	1362.600805	19.118000	-4.480000
	202.599588	1362.603183	19.124000	-4.480000
	202.699594	1362.603183	19.102000	-4.500000
	202.799600	1362.603183	19.102000	-4.500000
	202.899605	1362.606751	19.130000	-4.470000
	203.004611	1362.603183	19.116000	-4.530000
	203.099617	1362.603183	19.114000	-4.500000
	203.199622	1362.598427	19.110000	-4.540000
	203.299628	1362.596049	19.102000	-4.520000
	203.399634	1362.594860	19.100000	-4.510000
	203.499640	1362.590103	19.116000	-4.540000
	203.599645	1362.596049	19.104000	-4.450000
	203.699651	1362.591293	19.082000	-4.540000
	203.799657	1362.591293	19.082000	-4.540000
	203.899662	1362.592482	19.118000	-4.490000
	203.999668	1362.592482	19.094000	-4.500000
	204.099674	1362.592482	19.110000	-4.500000
	204.199679	1362.591293	19.110000	-4.510000
	204.299685	1362.597238	19.092000	-4.450000
	204.399691	1362.600806	19.108000	-4.470000
	204.549700	1362.603184	19.112000	-4.480000
	204.649705	1362.606751	19.112000	-4.470000
	204.749711	1362.604373	19.112000	-4.520000
	204.849717	1362.598428	19.122000	-4.550000
	204.949722	1362.597239	19.088000	-4.510000
	205.049728	1362.592482	19.110000	-4.540000
	205.149734	1362.594860	19.112000	-4.480000
	205.249740	1362.586537	19.120000	-4.570000
	205.350745	1362.586537	19.116000	-4.500000
	205.449751	1362.592483	19.098000	-4.450000
	205.549757	1362.594861	19.102000	-4.480000
	205.649763	1362.596050	19.108000	-4.490000
	205.749768	1362.596050	19.108000	-4.490000
	205.849774	1362.594861	19.106000	-4.510000
	205.949780	1362.601996	19.102000	-4.440000
	206.049786	1362.598428	19.090000	-4.530000
	206.149791	1362.594861	19.102000	-4.530000
	206.249797	1362.596050	19.114000	-4.490000
	206.349802	1362.593672	19.104000	-4.520000
	206.449808	1362.603185	19.104000	-4.420000
	206.549814	1362.599618	19.114000	-4.530000
	206.649820	1362.599618	19.102000	-4.500000
	206.749825	1362.599618	19.092000	-4.500000
	206.849831	1362.609131	19.092000	-4.420000
	206.949837	1362.612698	19.114000	-4.470000
	207.052843	1362.621022	19.102000	-4.430000
	207.149848	1362.616266	19.094000	-4.540000
	207.249854	1362.616266	19.106000	-4.500000
	207.349860	1362.622212	19.104000	-4.450000
	207.449865	1362.622212	19.104000	-4.450000
	207.549871	1362.623401	19.092000	-4.490000
	207.649877	1362.619833	19.118000	-4.530000
	207.749883	1362.618644	19.110000	-4.510000
	207.849888	1362.619833	19.092000	-4.490000
	207.949894	1362.619833	19.110000	-4.500000
	208.049900	1362.618644	19.098000	-4.510000
	208.149906	1362.612699	19.100000	-4.550000
	208.249911	1362.617455	19.126000	-4.460000
	208.349917	1362.616266	19.108000	-4.510000
	208.449923	1362.612699	19.086000	-4.530000
	208.549928	1362.606754	19.114000	-4.550000
	208.649934	1362.605564	19.092000	-4.510000
	208.751940	1362.604375	19.116000	-4.510000
	208.849946	1362.606754	19.110000	-4.480000
	208.949951	1362.603186	19.106000	-4.530000
	209.049957	1362.604375	19.128000	-4.490000
	209.149963	1362.601997	19.130000	-4.520000
	209.249969	1362.601997	19.130000	-4.520000
	209.349974	1362.606754	19.112000	-4.460000
	209.449980	1362.600808	19.120000	-4.550000
	209.549985	1362.611511	19.114000	-4.410000
	209.649992	1362.606754	19.120000	-4.540000
	209.749997	1362.606754	19.120000	-4.500000
	209.853003	1362.607943	19.104000	-4.490000
	209.950008	1362.605565	19.126000	-4.520000
	210.050014	1362.606754	19.132000	-4.490000
	210.150020	1362.605565	19.106000	-4.510000
	210.250026	1362.605565	19.116000	-4.500000
	210.353032	1362.609133	19.102000	-4.470000
	210.450037	1362.603187	19.112000	-4.550000
	210.550043	1362.596053	19.112000	-4.560000
	210.650049	1362.597242	19.108000	-4.490000
	210.750054	1362.601998	19.114000	-4.460000
	210.850060	1362.597242	19.106000	-4.540000
	210.950066	1362.596053	19.106000	-4.510000
	211.050071	1362.597242	19.096000	-4.490000
	211.150077	1362.593675	19.132000	-4.530000
	211.300086	1362.597242	19.098000	-4.470000
	211.400091	1362.600809	19.130000	-4.470000
	211.500097	1362.603188	19.128000	-4.480000
	211.600103	1362.600810	19.116000	-4.520000
	211.700109	1362.599620	19.122000	-4.510000
	211.800114	1362.601999	19.090000	-4.480000
	211.950123	1362.603188	19.102000	-4.490000
	212.050128	1362.603188	19.112000	-4.500000
	212.149134	1362.600810	19.100000	-4.520000
	212.249140	1362.599620	19.106000	-4.510000
	212.349146	1362.607944	19.104000	-4.430000
	212.449152	1362.612701	19.104000	-4.460000
	212.549157	1362.612701	19.104000	-4.460000
	212.649163	1362.609134	19.102000	-4.530000
	212.749168	1362.605566	19.110000	-4.530000
	212.849174	1362.603188	19.106000	-4.520000
	212.949180	1362.599621	19.120000	-4.530000
	213.049186	1362.600810	19.112000	-4.490000
	213.149191	1362.593676	19.124000	-4.560000
	213.249197	1362.592487	19.092000	-4.510000
	213.349203	1362.593676	19.110000	-4.490000
	213.449209	1362.597243	19.120000	-4.470000
	213.549214	1362.598432	19.128000	-4.490000
	213.655221	1362.598432	19.108000	-4.500000
	213.749226	1362.594865	19.106000	-4.530000
	213.849232	1362.582974	19.106000	-4.600000
	213.949237	1362.579407	19.092000	-4.530000
	214.049243	1362.584164	19.114000	-4.460000
	214.149249	1362.584164	19.114000	-4.460000
	214.249254	1362.582975	19.106000	-4.510000
	214.349260	1362.590109	19.104000	-4.440000
	214.449266	1362.593677	19.102000	-4.470000
	214.549272	1362.592487	19.108000	-4.510000
	214.649277	1362.598433	19.114000	-4.450000
	214.749283	1362.597244	19.128000	-4.510000
	214.849288	1362.599622	19.120000	-4.480000
	214.949295	1362.603189	19.134000	-4.470000
	215.049300	1362.599622	19.128000	-4.530000
	215.149306	1362.598433	19.114000	-4.510000
	215.249311	1362.596055	19.100000	-4.520000
	215.353318	1362.594866	19.124000	-4.510000
	215.449323	1362.596055	19.116000	-4.490000
	215.549329	1362.600811	19.100000	-4.460000
	215.649334	1362.599622	19.090000	-4.510000
	215.749340	1362.597244	19.108000	-4.520000
	215.849346	1362.597244	19.114000	-4.500000
	215.949352	1362.591299	19.120000	-4.550000
	216.049357	1362.591299	19.092000	-4.500000
	216.199366	1362.588921	19.106000	-4.520000
	216.299372	1362.588921	19.122000	-4.500000
	216.399377	1362.593677	19.118000	-4.460000
	216.499383	1362.594866	19.122000	-4.490000
	216.599389	1362.592488	19.118000	-4.520000
	216.699395	1362.590110	19.118000	-4.520000
	216.799400	1362.597245	19.112000	-4.440000
	216.949409	1362.598434	19.106000	-4.490000
	217.049415	1362.602001	19.120000	-4.470000
	217.149420	1362.598434	19.110000	-4.530000
	217.249426	1362.596056	19.110000	-4.520000
	217.349432	1362.596056	19.110000	-4.520000
	217.449438	1362.597245	19.126000	-4.490000
	217.549443	1362.592488	19.108000	-4.540000
	217.649449	1362.596056	19.104000	-4.470000
	217.749454	1362.587732	19.106000	-4.570000
	217.849460	1362.577031	19.118000	-4.590000
	217.949466	1362.580598	19.098000	-4.470000
	218.049472	1362.580598	19.132000	-4.500000
	218.149477	1362.579409	19.130000	-4.510000
	218.249483	1362.582976	19.108000	-4.470000
	218.349489	1362.586544	19.104000	-4.470000
	218.449495	1362.584166	19.134000	-4.520000
	218.557501	1362.582977	19.122000	-4.510000
	218.649506	1362.585355	19.104000	-4.480000
	218.749512	1362.592489	19.118000	-4.440000
	218.849517	1362.593678	19.118000	-4.490000
	218.949523	1362.597246	19.128000	-4.470000
	219.049529	1362.597246	19.114000	-4.500000
	219.149535	1362.597246	19.114000	-4.500000
	219.249540	1362.605570	19.114000	-4.430000
	219.349546	1362.605570	19.102000	-4.500000
	219.449552	1362.600813	19.106000	-4.540000
	219.549558	1362.606759	19.108000	-4.450000
	219.649563	1362.607948	19.124000	-4.490000
	219.749569	1362.610326	19.106000	-4.480000
	219.849575	1362.609137	19.106000	-4.510000
	219.952580	1362.613894	19.102000	-4.460000
	220.049586	1362.607948	19.116000	-4.550000
	220.149592	1362.606759	19.116000	-4.510000
	220.249598	1362.603192	19.118000	-4.530000
	220.349603	1362.596058	19.118000	-4.560000
	220.449609	1362.598436	19.122000	-4.480000
	220.549615	1362.597247	19.102000	-4.510000
	220.649621	1362.602003	19.128000	-4.460000
	220.749626	1362.600814	19.118000	-4.510000
	220.899635	1362.602003	19.106000	-4.490000
	220.999640	1362.604381	19.122000	-4.480000
	221.099646	1362.604381	19.128000	-4.500000
	221.199652	1362.605570	19.120000	-4.490000
	221.299658	1362.605570	19.120000	-4.490000
	221.399663	1362.602003	19.120000	-4.530000
	221.499669	1362.609138	19.124000	-4.440000
	221.599675	1362.610327	19.114000	-4.490000
	221.699680	1362.605571	19.114000	-4.540000
	221.799686	1362.612705	19.108000	-4.440000
	221.899692	1362.609138	19.110000	-4.530000
	221.999698	1362.604382	19.118000	-4.540000
	222.099703	1362.607949	19.108000	-4.470000
	222.199709	1362.603193	19.112000	-4.540000
	222.299715	1362.599626	19.110000	-4.530000
	222.401721	1362.594869	19.116000	-4.540000
	222.499726	1362.596058	19.124000	-4.490000
	222.599732	1362.600815	19.118000	-4.460000
	222.699738	1362.602004	19.112000	-4.490000
	222.799743	1362.603193	19.116000	-4.490000
	222.899749	1362.603193	19.116000	-4.490000
	222.999755	1362.606760	19.118000	-4.470000
	223.099761	1362.609139	19.122000	-4.480000
	223.199766	1362.607950	19.108000	-4.510000
	223.299772	1362.603193	19.096000	-4.540000
	223.399778	1362.600815	19.110000	-4.520000
	223.499784	1362.600815	19.116000	-4.500000
	223.599789	1362.598437	19.138000	-4.520000
	223.699795	1362.602004	19.120000	-4.470000
	223.799800	1362.607950	19.096000	-4.450000
	223.899806	1362.600815	19.108000	-4.560000
	223.999812	1362.602005	19.112000	-4.490000
	224.100818	1362.605572	19.104000	-4.470000
	224.199823	1362.606761	19.126000	-4.490000
	224.299829	1362.603194	19.124000	-4.530000
	224.399835	1362.599626	19.118000	-4.530000
	224.499841	1362.593681	19.114000	-4.550000
	224.599846	1362.598438	19.118000	-4.460000
	224.699852	1362.598438	19.118000	-4.460000
	224.799858	1362.605572	19.108000	-4.440000
	224.899864	1362.611518	19.118000	-4.450000
	224.999869	1362.615085	19.106000	-4.470000
	225.099875	1362.611518	19.116000	-4.530000
	225.199881	1362.606762	19.120000	-4.540000
	225.299886	1362.609140	19.114000	-4.480000
	225.399892	1362.609140	19.110000	-4.500000
	225.499898	1362.610329	19.102000	-4.490000
	225.599904	1362.611518	19.128000	-4.490000
	225.699909	1362.613896	19.118000	-4.480000
	225.802915	1362.612707	19.108000	-4.510000
	225.899921	1362.613896	19.134000	-4.490000
	225.999927	1362.611518	19.102000	-4.520000
	226.099932	1362.609140	19.116000	-4.520000
	226.199938	1362.616275	19.110000	-4.440000
	226.299943	1362.622220	19.120000	-4.450000
	226.399949	1362.619842	19.090000	-4.520000
	226.499955	1362.621031	19.120000	-4.490000
	226.649963	1362.619842	19.132000	-4.510000
	226.749969	1362.618653	19.102000	-4.510000
	226.849975	1362.609141	19.120000	-4.580000
	226.949981	1362.606762	19.110000	-4.520000
	227.049986	1362.611519	19.104000	-4.460000
	227.149992	1362.615086	19.104000	-4.470000
	227.249998	1362.612708	19.114000	-4.520000
	227.350004	1362.611519	19.114000	-4.510000
	227.450009	1362.612708	19.110000	-4.490000
	227.600018	1362.612708	19.110000	-4.490000
	227.700024	1362.610330	19.120000	-4.520000
	227.800029	1362.605574	19.100000	-4.540000
	227.900035	1362.611519	19.108000	-4.450000
	228.000041	1362.612708	19.096000	-4.490000
	228.100047	1362.616276	19.100000	-4.470000
	228.200052	1362.615087	19.110000	-4.510000
	228.300058	1362.611519	19.110000	-4.530000
	228.400064	1362.622222	19.114000	-4.410000
	228.500070	1362.624600	19.120000	-4.480000
	228.600075	1362.624600	19.106000	-4.500000
	228.700081	1362.622222	19.100000	-4.520000
	228.800086	1362.621033	19.098000	-4.510000
	228.900092	1362.617465	19.118000	-4.530000
	229.001098	1362.616276	19.102000	-4.510000
	229.100104	1362.622222	19.106000	-4.450000
	229.200109	1362.623411	19.102000	-4.490000
	229.300115	1362.629357	19.108000	-4.450000
	229.400121	1362.629357	19.108000	-4.450000
	229.500127	1362.634113	19.120000	-4.460000
	229.599133	1362.634113	19.106000	-4.500000
	229.699138	1362.630546	19.088000	-4.530000
	229.799144	1362.630546	19.098000	-4.500000
	229.899149	1362.630546	19.098000	-4.500000
	229.999155	1362.628168	19.114000	-4.520000
	230.099161	1362.629357	19.102000	-4.490000
	230.199167	1362.626979	19.102000	-4.520000
	230.299172	1362.629357	19.126000	-4.480000
	230.399178	1362.634113	19.104000	-4.460000
	230.499184	1362.626979	19.112000	-4.560000
	230.599189	1362.628168	19.114000	-4.490000
	230.701195	1362.632925	19.094000	-4.460000
	230.799201	1362.634114	19.100000	-4.490000
	230.899207	1362.636492	19.106000	-4.480000
	230.999212	1362.635303	19.106000	-4.510000
	231.099218	1362.635303	19.106000	-4.510000
	231.199224	1362.641249	19.094000	-4.450000
	231.299230	1362.641249	19.098000	-4.500000
	231.399235	1362.644816	19.092000	-4.470000
	231.499241	1362.644816	19.104000	-4.500000
	231.599247	1362.644816	19.112000	-4.500000
	231.699253	1362.644816	19.110000	-4.500000
	231.799258	1362.642438	19.098000	-4.520000
	231.899264	1362.642438	19.090000	-4.500000
	232.006270	1362.646005	19.096000	-4.470000
	232.099275	1362.647194	19.104000	-4.490000
	232.199281	1362.646005	19.106000	-4.510000
	232.299287	1362.647194	19.112000	-4.490000
	232.403293	1362.648383	19.106000	-4.490000
	232.499298	1362.642438	19.098000	-4.550000
	232.599304	1362.643627	19.094000	-4.490000
	232.699310	1362.643627	19.094000	-4.500000
	232.799315	1362.647194	19.106000	-4.470000
	232.899321	1362.647194	19.108000	-4.500000
	232.999327	1362.649573	19.098000	-4.480000
	233.099332	1362.655519	19.118000	-4.450000
	233.249341	1362.656708	19.102000	-4.490000
	233.349347	1362.654329	19.106000	-4.520000
	233.450353	1362.657897	19.088000	-4.470000
	233.549358	1362.651951	19.096000	-4.550000
	233.649364	1362.649573	19.098000	-4.520000
	233.749370	1362.646006	19.096000	-4.530000
	233.849375	1362.644817	19.100000	-4.510000
	233.949381	1362.649573	19.094000	-4.460000
	234.099390	1362.651952	19.116000	-4.480000
	234.199395	1362.649573	19.086000	-4.520000
	234.299401	1362.649573	19.086000	-4.520000
	234.399407	1362.644817	19.088000	-4.540000
	234.499413	1362.650763	19.108000	-4.450000
	234.599418	1362.651952	19.106000	-4.490000
	234.699424	1362.650763	19.104000	-4.510000
	234.799430	1362.654330	19.118000	-4.470000
	234.901435	1362.650763	19.108000	-4.530000
	234.999441	1362.649574	19.104000	-4.510000
	235.099447	1362.646006	19.102000	-4.530000
	235.199452	1362.644817	19.116000	-4.510000
	235.299459	1362.655520	19.092000	-4.410000
	235.399464	1362.656709	19.110000	-4.490000
	235.502470	1362.654331	19.094000	-4.520000
	235.599475	1362.649574	19.092000	-4.540000
	235.699481	1362.640061	19.108000	-4.580000
	235.799487	1362.641250	19.118000	-4.490000
	235.899493	1362.640061	19.090000	-4.510000
	235.999498	1362.638872	19.094000	-4.510000
	236.099504	1362.644818	19.114000	-4.450000
	236.199510	1362.644818	19.114000	-4.450000
	236.299516	1362.648385	19.104000	-4.470000
	236.399521	1362.638873	19.090000	-4.580000
	236.499527	1362.631738	19.112000	-4.560000
	236.599533	1362.626982	19.112000	-4.540000
	236.699538	1362.629360	19.092000	-4.480000
	236.799544	1362.634116	19.112000	-4.460000
	236.899550	1362.635306	19.102000	-4.490000
	236.999556	1362.636495	19.104000	-4.490000
	237.100562	1362.634117	19.124000	-4.520000
	237.199567	1362.629360	19.126000	-4.540000
	237.299573	1362.625793	19.108000	-4.530000
	237.399579	1362.630549	19.120000	-4.460000
	237.499584	1362.631738	19.112000	-4.490000
	237.605590	1362.634117	19.118000	-4.480000
	237.707596	1362.635306	19.094000	-4.490000
	237.799602	1362.638873	19.106000	-4.470000
	237.949610	1362.636495	19.106000	-4.520000
	238.049616	1362.634117	19.104000	-4.520000
	238.149621	1362.634117	19.104000	-4.520000
	238.249627	1362.635306	19.098000	-4.490000
	238.349633	1362.635306	19.134000	-4.500000
	238.449638	1362.634117	19.098000	-4.510000
	238.549644	1362.636495	19.104000	-4.480000
	238.649650	1362.634117	19.100000	-4.520000
	238.749656	1362.638873	19.118000	-4.460000
	238.855662	1362.638873	19.106000	-4.500000
	238.949667	1362.637684	19.092000	-4.510000
	239.049673	1362.637684	19.102000	-4.500000
	239.150679	1362.641252	19.100000	-4.470000
	239.249684	1362.637684	19.124000	-4.530000
	239.349690	1362.636495	19.080000	-4.510000
	239.452696	1362.640063	19.080000	-4.470000
	239.549702	1362.644819	19.104000	-4.460000
	239.649707	1362.650765	19.110000	-4.450000
	239.749713	1362.651954	19.112000	-4.490000
	239.849719	1362.655522	19.094000	-4.470000
	239.949724	1362.655522	19.094000	-4.470000
	240.049730	1362.650765	19.116000	-4.540000
	240.149736	1362.647198	19.102000	-4.530000
	240.249742	1362.644820	19.098000	-4.520000
	240.350747	1362.638874	19.108000	-4.550000
	240.449753	1362.636496	19.124000	-4.520000
	240.549759	1362.634118	19.096000	-4.520000
	240.649765	1362.637685	19.114000	-4.470000
	240.749770	1362.638874	19.114000	-4.490000
	240.849776	1362.643631	19.106000	-4.460000
	240.949781	1362.636496	19.120000	-4.560000
	241.053788	1362.641253	19.102000	-4.460000
	241.149793	1362.636496	19.078000	-4.540000
	241.249799	1362.640064	19.106000	-4.470000
	241.350804	1362.648388	19.102000	-4.430000
	241.449810	1362.644820	19.120000	-4.530000
	241.549816	1362.650766	19.102000	-4.450000
	241.649822	1362.650766	19.104000	-4.500000
	241.749827	1362.650766	19.104000	-4.500000
	241.849833	1362.648388	19.112000	-4.520000
	241.949839	1362.649577	19.104000	-4.490000
	242.049844	1362.649577	19.092000	-4.500000
	242.149850	1362.648388	19.080000	-4.510000
	242.249856	1362.649577	19.088000	-4.490000
	242.349862	1362.647199	19.102000	-4.520000
	242.455868	1362.646010	19.094000	-4.510000
	242.549873	1362.650766	19.098000	-4.460000
	242.652879	1362.646010	19.098000	-4.540000
	242.749885	1362.643632	19.116000	-4.520000
	242.849890	1362.641253	19.114000	-4.520000
	242.949896	1362.643632	19.100000	-4.480000
	243.049901	1362.644821	19.094000	-4.490000
	243.149908	1362.644821	19.108000	-4.500000
	243.249913	1362.640064	19.094000	-4.540000
	243.349919	1362.650767	19.108000	-4.410000
	243.449924	1362.648389	19.102000	-4.520000
	243.599933	1362.648389	19.102000	-4.520000
	243.699939	1362.638876	19.110000	-4.580000
	243.799944	1362.638876	19.102000	-4.500000
	243.899951	1362.640065	19.110000	-4.490000
	243.999956	1362.643633	19.106000	-4.470000
	244.099962	1362.642443	19.078000	-4.510000
	244.199967	1362.644822	19.118000	-4.480000
	244.299973	1362.650768	19.120000	-4.450000
	244.399979	1362.646011	19.126000	-4.540000
	244.499985	1362.641255	19.092000	-4.540000
	244.599990	1362.637687	19.106000	-4.530000
	244.699996	1362.637687	19.106000	-4.500000
	244.800002	1362.642444	19.110000	-4.460000
	244.850005	1362.642444	19.104000	-4.500000
	245.000013	1362.643633	19.108000	-4.490000
	245.100019	1362.646011	19.096000	-4.480000
	245.200025	1362.640066	19.094000	-4.550000
	245.300030	1362.644822	19.090000	-4.460000
	245.400036	1362.640066	19.094000	-4.540000
	245.500042	1362.643633	19.092000	-4.470000
	245.650051	1362.640066	19.118000	-4.530000
	245.750056	1362.636499	19.090000	-4.530000
	245.850062	1362.636499	19.090000	-4.530000
	245.950068	1362.632931	19.112000	-4.530000
	246.050073	1362.630553	19.122000	-4.520000
	246.150079	1362.635310	19.110000	-4.460000
	246.250085	1362.637688	19.106000	-4.480000
	246.350091	1362.634121	19.094000	-4.530000
	246.450096	1362.629364	19.100000	-4.540000
	246.550102	1362.632932	19.114000	-4.470000
	246.650107	1362.632932	19.098000	-4.500000
	246.750113	1362.634121	19.120000	-4.490000
	246.850119	1362.629364	19.098000	-4.540000
	246.950125	1362.624608	19.112000	-4.540000
	247.050130	1362.631743	19.082000	-4.440000
	247.149136	1362.630554	19.110000	-4.510000
	247.253142	1362.636499	19.112000	-4.450000
	247.349148	1362.635310	19.108000	-4.510000
	247.449153	1362.636499	19.100000	-4.490000
	247.549159	1362.634121	19.100000	-4.520000
	247.649165	1362.630554	19.100000	-4.530000
	247.749170	1362.625797	19.098000	-4.540000
	247.849176	1362.629365	19.108000	-4.470000
	247.949182	1362.640067	19.094000	-4.410000
	248.099191	1362.638878	19.118000	-4.510000
	248.199196	1362.638878	19.096000	-4.500000
	248.299202	1362.632933	19.104000	-4.550000
	248.399208	1362.628176	19.106000	-4.540000
	248.499213	1362.629365	19.088000	-4.490000
	248.599219	1362.637690	19.114000	-4.430000
	248.699225	1362.642446	19.108000	-4.460000
	248.799231	1362.646014	19.100000	-4.470000
	248.949239	1362.640068	19.092000	-4.550000
	249.049245	1362.638879	19.100000	-4.510000
	249.149251	1362.638879	19.088000	-4.500000
	249.249256	1362.638879	19.088000	-4.500000
	249.349262	1362.635312	19.116000	-4.530000
	249.449268	1362.634122	19.104000	-4.510000
	249.549273	1362.635312	19.094000	-4.490000
	249.649279	1362.636501	19.106000	-4.490000
	249.749285	1362.640068	19.112000	-4.470000
	249.849290	1362.642446	19.106000	-4.480000
	249.949296	1362.648392	19.108000	-4.450000
	250.049302	1362.641258	19.098000	-4.560000
	250.149308	1362.643636	19.088000	-4.480000
	250.250313	1362.643636	19.102000	-4.500000
	250.349319	1362.634123	19.112000	-4.580000
	250.449325	1362.628178	19.106000	-4.550000
	250.549331	1362.631745	19.096000	-4.470000
	250.649336	1362.630556	19.106000	-4.510000
	250.749342	1362.629367	19.102000	-4.510000
	250.849348	1362.631745	19.098000	-4.480000
	250.949354	1362.631745	19.092000	-4.500000
	251.099362	1362.630556	19.118000	-4.510000
	251.199368	1362.638880	19.098000	-4.430000
	251.299374	1362.644826	19.114000	-4.450000
	251.399379	1362.646015	19.094000	-4.490000
	251.499385	1362.644826	19.120000	-4.510000
	251.599391	1362.644826	19.120000	-4.510000
	251.699397	1362.643637	19.100000	-4.510000
	251.799402	1362.650772	19.118000	-4.440000
	251.899408	1362.649582	19.094000	-4.510000
	251.999413	1362.650772	19.118000	-4.490000
	252.099419	1362.651961	19.100000	-4.490000
	252.199425	1362.646015	19.132000	-4.550000
	252.299431	1362.644826	19.096000	-4.510000
	252.399436	1362.638881	19.100000	-4.550000
	252.502442	1362.635313	19.100000	-4.530000
	252.599448	1362.635313	19.110000	-4.500000
	252.699454	1362.642448	19.106000	-4.440000
	252.799459	1362.638881	19.116000	-4.530000
	252.899465	1362.640070	19.116000	-4.490000
	252.999471	1362.641259	19.114000	-4.490000
	253.099476	1362.634124	19.108000	-4.560000
	253.199482	1362.635314	19.108000	-4.490000
	253.299488	1362.641259	19.124000	-4.450000
	253.449496	1362.649584	19.100000	-4.430000
	253.549502	1362.649584	19.100000	-4.430000
	253.649508	1362.649584	19.104000	-4.500000
	253.749514	1362.646016	19.104000	-4.530000
	253.849519	1362.647205	19.094000	-4.490000
	253.949525	1362.644827	19.104000	-4.520000
	254.049531	1362.641260	19.082000	-4.530000
	254.149537	1362.640071	19.120000	-4.510000
	254.249542	1362.638881	19.092000	-4.510000
	254.349548	1362.636503	19.082000	-4.520000
	254.449553	1362.637692	19.102000	-4.490000
	254.549560	1362.638881	19.098000	-4.490000
	254.649565	1362.636503	19.110000	-4.520000
	254.749571	1362.641260	19.098000	-4.460000
	254.849576	1362.637692	19.100000	-4.530000
	254.952582	1362.646017	19.102000	-4.430000
	255.049588	1362.648395	19.098000	-4.480000
	255.149594	1362.648395	19.098000	-4.480000
	255.249599	1362.650773	19.098000	-4.480000
	255.349605	1362.653152	19.098000	-4.480000
	255.449611	1362.659097	19.108000	-4.450000
	255.549617	1362.660286	19.102000	-4.490000
	255.649622	1362.659097	19.100000	-4.510000
	255.749628	1362.660286	19.114000	-4.490000
	255.849634	1362.660286	19.094000	-4.500000
	255.949639	1362.656719	19.128000	-4.530000
	256.049645	1362.662665	19.090000	-4.450000
	256.149651	1362.657908	19.100000	-4.540000
	256.249657	1362.659098	19.118000	-4.490000
	256.349662	1362.654341	19.116000	-4.540000
	256.449668	1362.657909	19.074000	-4.470000
	256.549674	1362.656719	19.118000	-4.510000
	256.652680	1362.650774	19.102000	-4.550000
	256.749685	1362.655530	19.104000	-4.460000
	256.849691	1362.655530	19.100000	-4.500000
	256.949697	1362.653152	19.102000	-4.520000
	257.049702	1362.649585	19.098000	-4.530000
	257.149708	1362.650774	19.124000	-4.490000
	257.249714	1362.654341	19.112000	-4.470000
	257.349720	1362.657909	19.102000	-4.470000
	257.499728	1362.656720	19.102000	-4.510000
	257.599734	1362.653152	19.080000	-4.530000
	257.699739	1362.651963	19.106000	-4.510000
	257.799745	1362.653152	19.102000	-4.490000
	257.899751	1362.650774	19.104000	-4.520000
	257.999757	1362.654342	19.098000	-4.470000
	258.099762	1362.659098	19.104000	-4.460000
	258.199768	1362.654342	19.084000	-4.540000
	258.349777	1362.647207	19.112000	-4.560000
	258.449782	1362.647207	19.112000	-4.560000
	258.549788	1362.651964	19.106000	-4.460000
	258.649794	1362.654342	19.094000	-4.480000
	258.749800	1362.651964	19.102000	-4.520000
	258.849805	1362.651964	19.102000	-4.500000
	258.949811	1362.651964	19.120000	-4.500000
	259.049817	1362.656720	19.082000	-4.460000
	259.149823	1362.656720	19.092000	-4.500000
	259.249828	1362.655531	19.092000	-4.510000
	259.349834	1362.656720	19.102000	-4.490000
	259.449840	1362.656720	19.096000	-4.500000
	259.549845	1362.654342	19.086000	-4.520000
	259.649851	1362.651964	19.112000	-4.520000
	259.752857	1362.657910	19.096000	-4.450000
	259.849863	1362.662666	19.110000	-4.460000
	259.949868	1362.659099	19.106000	-4.530000
	260.049874	1362.657910	19.104000	-4.510000
	260.149880	1362.654342	19.102000	-4.530000
	260.249886	1362.654342	19.102000	-4.530000
	260.349891	1362.655532	19.094000	-4.490000
	260.449897	1362.657910	19.106000	-4.480000
	260.549902	1362.662667	19.108000	-4.460000
	260.649908	1362.660288	19.102000	-4.520000
	260.749914	1362.660288	19.124000	-4.500000
	260.849920	1362.662667	19.112000	-4.480000
	260.949925	1362.655532	19.110000	-4.560000
	261.049931	1362.654343	19.092000	-4.510000
	261.149937	1362.655532	19.094000	-4.490000
	261.249943	1362.653154	19.102000	-4.520000
	261.351949	1362.654343	19.110000	-4.490000
	261.449954	1362.657910	19.092000	-4.470000
	261.552960	1362.651965	19.102000	-4.550000
	261.649965	1362.655532	19.088000	-4.470000
	261.799974	1362.647208	19.108000	-4.570000
	261.899980	1362.646019	19.094000	-4.510000
	261.999986	1362.647208	19.092000	-4.490000
	262.099991	1362.650776	19.110000	-4.470000
	262.199997	1362.648398	19.106000	-4.520000
	262.300003	1362.649587	19.114000	-4.490000
	262.400008	1362.651965	19.108000	-4.480000
	262.450011	1362.651965	19.108000	-4.480000
	262.653023	1362.656722	19.098000	-4.480000
	262.858035	1362.656722	19.098000	-4.480000
	263.002043	1362.653154	19.104000	-4.530000
	263.100049	1362.655533	19.106000	-4.480000
	263.200054	1362.655533	19.116000	-4.500000
	263.300060	1362.660289	19.090000	-4.460000
	263.402066	1362.659100	19.086000	-4.510000
	263.500072	1362.665046	19.118000	-4.450000
	263.600077	1362.661478	19.116000	-4.530000
	263.704083	1362.655533	19.104000	-4.550000
	263.800088	1362.651965	19.112000	-4.530000
	263.900094	1362.654344	19.120000	-4.480000
	264.000100	1362.653155	19.100000	-4.510000
	264.100106	1362.654344	19.092000	-4.490000
	264.200111	1362.657911	19.078000	-4.470000
	264.300117	1362.656722	19.094000	-4.510000
	264.400123	1362.655533	19.102000	-4.510000
	264.500128	1362.661479	19.110000	-4.450000
	264.599134	1362.662668	19.084000	-4.490000
	264.749143	1362.663857	19.122000	-4.490000
	264.849148	1362.659101	19.112000	-4.540000
	264.949154	1362.660290	19.106000	-4.490000
	265.049160	1362.661479	19.088000	-4.490000
	265.149166	1362.661479	19.118000	-4.500000
	265.249171	1362.666236	19.096000	-4.460000
	265.349177	1362.665046	19.094000	-4.510000
	265.499186	1362.668614	19.096000	-4.470000
	265.599191	1362.661479	19.086000	-4.560000
	265.699197	1362.661479	19.086000	-4.560000
	265.799203	1362.659101	19.104000	-4.520000
	265.899209	1362.663858	19.088000	-4.460000
	265.999214	1362.660290	19.098000	-4.530000
	266.102220	1362.657912	19.104000	-4.520000
	266.199226	1362.657912	19.106000	-4.500000
	266.299232	1362.665047	19.106000	-4.440000
	266.399237	1362.662669	19.084000	-4.520000
	266.499243	1362.665047	19.106000	-4.480000
	266.599248	1362.657912	19.102000	-4.560000
	266.699255	1362.655534	19.094000	-4.520000
	266.799260	1362.649588	19.100000	-4.550000
	266.899266	1362.657913	19.114000	-4.430000
	267.002272	1362.657913	19.102000	-4.500000
	267.099277	1362.659102	19.084000	-4.490000
	267.199283	1362.655534	19.100000	-4.530000
	267.299289	1362.656724	19.110000	-4.490000
	267.399294	1362.665048	19.100000	-4.430000
	267.499300	1362.665048	19.100000	-4.430000
	267.599306	1362.663859	19.090000	-4.510000
	267.699312	1362.660291	19.108000	-4.530000
	267.799317	1362.663859	19.104000	-4.470000
	267.899323	1362.666237	19.118000	-4.480000
	267.999329	1362.668615	19.106000	-4.480000
	268.099334	1362.665048	19.076000	-4.530000
	268.199340	1362.663859	19.092000	-4.510000
	268.299346	1362.661481	19.076000	-4.520000
	268.399352	1362.657913	19.078000	-4.530000
	268.499357	1362.657913	19.108000	-4.500000
	268.602363	1362.656724	19.122000	-4.510000
	268.699368	1362.660292	19.122000	-4.470000
	268.799375	1362.660292	19.108000	-4.500000
	268.899380	1362.661481	19.102000	-4.490000
	268.999386	1362.655535	19.106000	-4.550000
	269.099391	1362.657913	19.108000	-4.480000
	269.199397	1362.657913	19.108000	-4.480000
	269.299403	1362.657913	19.102000	-4.500000
	269.399409	1362.653157	19.110000	-4.540000
	269.499414	1362.655535	19.102000	-4.480000
	269.599420	1362.661481	19.094000	-4.450000
	269.699426	1362.661481	19.108000	-4.500000
	269.799432	1362.659103	19.116000	-4.520000
	269.899437	1362.659103	19.090000	-4.500000
	269.999443	1362.657914	19.090000	-4.510000
	270.099449	1362.662670	19.102000	-4.460000
	270.205455	1362.661481	19.084000	-4.510000
	270.299460	1362.662670	19.090000	-4.490000
	270.399466	1362.668616	19.096000	-4.450000
	270.499472	1362.672184	19.112000	-4.470000
	270.599477	1362.673373	19.092000	-4.490000
	270.699483	1362.670995	19.100000	-4.520000
	270.799489	1362.670995	19.100000	-4.520000
	270.899495	1362.666238	19.082000	-4.540000
	270.999500	1362.666238	19.094000	-4.500000
	271.099506	1362.667427	19.100000	-4.490000
	271.199512	1362.670995	19.112000	-4.470000
	271.299518	1362.674562	19.096000	-4.470000
	271.399523	1362.668616	19.114000	-4.550000
	271.499529	1362.660293	19.090000	-4.570000
	271.599535	1362.659104	19.098000	-4.510000
	271.699540	1362.653158	19.082000	-4.550000
	271.804546	1362.657915	19.084000	-4.460000
	271.899552	1362.660293	19.094000	-4.480000
	271.999557	1362.663860	19.102000	-4.470000
	272.099563	1362.666239	19.106000	-4.480000
	272.199569	1362.669806	19.100000	-4.470000
	272.299574	1362.669806	19.100000	-4.500000
	272.399580	1362.667428	19.088000	-4.520000
	272.499586	1362.663860	19.092000	-4.530000
	272.649595	1362.665050	19.102000	-4.490000
	272.749600	1362.670996	19.098000	-4.450000
	272.849606	1362.670996	19.098000	-4.450000
	272.949612	1362.668617	19.100000	-4.520000
	273.049617	1362.676942	19.096000	-4.430000
	273.149623	1362.675752	19.080000	-4.510000
	273.249629	1362.679320	19.100000	-4.470000
	273.349635	1362.676942	19.098000	-4.520000
	273.449640	1362.678131	19.084000	-4.490000
	273.549646	1362.672185	19.080000	-4.550000
	273.649652	1362.670996	19.122000	-4.510000
	273.749658	1362.678131	19.088000	-4.440000
	273.849663	1362.681699	19.102000	-4.470000
	273.949669	1362.676942	19.116000	-4.540000
	274.052675	1362.672185	19.116000	-4.540000
	274.149681	1362.672185	19.084000	-4.500000
	274.249686	1362.669807	19.112000	-4.520000
	274.349692	1362.675753	19.100000	-4.450000
	274.449697	1362.679321	19.106000	-4.470000
	274.549703	1362.678131	19.112000	-4.510000
	274.649709	1362.685267	19.098000	-4.440000
	274.749715	1362.685267	19.098000	-4.440000
	274.849720	1362.688834	19.092000	-4.470000
	274.951726	1362.688834	19.102000	-4.500000
	275.049732	1362.690023	19.084000	-4.490000
	275.149738	1362.691213	19.100000	-4.490000
	275.249743	1362.691213	19.106000	-4.500000
	275.349749	1362.685267	19.102000	-4.550000
	275.449755	1362.685267	19.112000	-4.500000
	275.549760	1362.691213	19.112000	-4.450000
	275.653767	1362.692402	19.102000	-4.490000
	275.749772	1362.681700	19.098000	-4.590000
	275.849778	1362.687646	19.108000	-4.450000
	275.949783	1362.692402	19.094000	-4.460000
	276.049789	1362.692402	19.092000	-4.500000
	276.149795	1362.695970	19.092000	-4.470000
	276.249801	1362.703105	19.104000	-4.440000
	276.349806	1362.699538	19.088000	-4.530000
	276.499815	1362.699538	19.088000	-4.530000
	276.599821	1362.695970	19.110000	-4.530000
	276.699826	1362.691214	19.090000	-4.540000
	276.799832	1362.692403	19.096000	-4.490000
	276.899838	1362.698349	19.116000	-4.450000
	276.999844	1362.693592	19.102000	-4.540000
	277.099849	1362.697160	19.100000	-4.470000
	277.199855	1362.697160	19.080000	-4.500000
	277.299860	1362.704295	19.106000	-4.440000
	277.399867	1362.699538	19.096000	-4.540000
	277.499872	1362.700728	19.102000	-4.490000
	277.599878	1362.699538	19.094000	-4.510000
	277.699883	1362.704295	19.112000	-4.460000
	277.799889	1362.700728	19.118000	-4.530000
	277.899895	1362.699539	19.096000	-4.510000
	278.005901	1362.706674	19.108000	-4.440000
	278.099906	1362.705485	19.078000	-4.510000
	278.199912	1362.701917	19.122000	-4.530000
	278.299918	1362.701917	19.102000	-4.500000
	278.399924	1362.701917	19.102000	-4.500000
	278.499929	1362.698350	19.110000	-4.530000
	278.599935	1362.693593	19.104000	-4.540000
	278.699941	1362.697161	19.100000	-4.470000
	278.799946	1362.694782	19.084000	-4.520000
	278.899952	1362.701917	19.098000	-4.440000
	278.999958	1362.709053	19.088000	-4.440000
	279.099964	1362.709053	19.098000	-4.500000
	279.199969	1362.707864	19.094000	-4.510000
	279.299975	1362.705485	19.104000	-4.520000
	279.399981	1362.711431	19.102000	-4.450000
	279.499987	1362.707864	19.096000	-4.530000
	279.605992	1362.700729	19.106000	-4.560000
	279.699998	1362.704296	19.120000	-4.470000
	279.800004	1362.706675	19.096000	-4.480000
	279.900010	1362.707864	19.106000	-4.490000
	280.015016	1362.712621	19.104000	-4.460000
	280.100021	1362.706675	19.096000	-4.550000
	280.200027	1362.706675	19.096000	-4.550000
	280.300032	1362.704297	19.078000	-4.520000
	280.400038	1362.695973	19.108000	-4.570000
	280.500044	1362.697162	19.096000	-4.490000
	280.600049	1362.697162	19.086000	-4.500000
	280.700055	1362.700729	19.110000	-4.470000
	280.800061	1362.704297	19.122000	-4.470000
	280.900066	1362.710243	19.114000	-4.450000
	281.007073	1362.712621	19.104000	-4.480000
	281.100078	1362.711432	19.086000	-4.510000
	281.200084	1362.715000	19.116000	-4.470000
	281.300089	1362.711432	19.094000	-4.530000
	281.400095	1362.706676	19.098000	-4.540000
	281.500101	1362.706676	19.106000	-4.500000
	281.600107	1362.706676	19.096000	-4.500000
	281.750115	1362.710243	19.086000	-4.470000
	281.850121	1362.713811	19.106000	-4.470000
	281.950127	1362.709054	19.118000	-4.540000
	282.049132	1362.712622	19.082000	-4.470000
	282.149138	1362.710243	19.096000	-4.520000
	282.250144	1362.715000	19.096000	-4.460000
	282.349149	1362.715000	19.096000	-4.460000
	282.449155	1362.712622	19.108000	-4.520000
	282.549161	1362.705487	19.094000	-4.560000
	282.649167	1362.704298	19.088000	-4.510000
	282.749172	1362.712622	19.110000	-4.430000
	282.849178	1362.712622	19.090000	-4.500000
	282.949184	1362.704298	19.092000	-4.570000
	283.049190	1362.709055	19.110000	-4.460000
	283.149195	1362.704298	19.108000	-4.540000
	283.251201	1362.710244	19.102000	-4.450000
	283.349206	1362.706677	19.108000	-4.530000
	283.449213	1362.700731	19.102000	-4.550000
	283.549218	1362.693596	19.124000	-4.560000
	283.649224	1362.691218	19.102000	-4.520000
	283.749229	1362.692407	19.114000	-4.490000
	283.849235	1362.699542	19.106000	-4.440000
	283.949241	1362.704299	19.104000	-4.460000
	284.049247	1362.699542	19.114000	-4.540000
	284.199255	1362.698353	19.108000	-4.510000
	284.299261	1362.698353	19.108000	-4.510000
	284.399267	1362.701921	19.102000	-4.470000
	284.499272	1362.700732	19.106000	-4.510000
	284.599278	1362.698353	19.110000	-4.520000
	284.699284	1362.700732	19.106000	-4.480000
	284.799290	1362.701921	19.108000	-4.490000
	284.899295	1362.700732	19.094000	-4.510000
	284.999301	1362.701921	19.104000	-4.490000
	285.099307	1362.701921	19.106000	-4.500000
	285.199313	1362.705488	19.116000	-4.470000
	285.299318	1362.710245	19.098000	-4.460000
	285.399324	1362.715002	19.094000	-4.460000
	285.499330	1362.712624	19.098000	-4.520000
	285.599335	1362.715002	19.090000	-4.480000
	285.700341	1362.715002	19.070000	-4.500000
	285.799347	1362.716191	19.096000	-4.490000
	285.899353	1362.711435	19.106000	-4.540000
	285.999358	1362.711435	19.106000	-4.540000
	286.099364	1362.711435	19.092000	-4.500000
	286.199370	1362.709056	19.096000	-4.520000
	286.299376	1362.707867	19.100000	-4.510000
	286.399381	1362.715002	19.102000	-4.440000
	286.499387	1362.711435	19.100000	-4.530000
	286.599392	1362.707867	19.104000	-4.530000
	286.699399	1362.709057	19.102000	-4.490000
	286.799404	1362.712624	19.084000	-4.470000
	286.899410	1362.711435	19.100000	-4.510000
	286.999415	1362.706678	19.092000	-4.540000
	287.099421	1362.709057	19.078000	-4.480000
	287.199427	1362.706678	19.116000	-4.520000
	287.299433	1362.709057	19.082000	-4.480000
	287.402439	1362.710246	19.084000	-4.490000
	287.499444	1362.709057	19.108000	-4.510000
	287.599450	1362.711435	19.090000	-4.480000
	287.699456	1362.711435	19.090000	-4.480000
	287.799461	1362.711435	19.084000	-4.500000
	287.899467	1362.706678	19.096000	-4.540000
	287.999473	1362.707868	19.098000	-4.490000
	288.099478	1362.710246	19.090000	-4.480000
	288.199484	1362.704300	19.088000	-4.550000
	288.299490	1362.710246	19.082000	-4.450000
	288.399496	1362.711435	19.102000	-4.490000
	288.499501	1362.711435	19.102000	-4.500000
	288.599507	1362.709057	19.120000	-4.520000
	288.699512	1362.710246	19.090000	-4.490000
	288.799519	1362.706679	19.106000	-4.530000
	288.899524	1362.709057	19.108000	-4.480000
	288.999530	1362.707868	19.114000	-4.510000
	289.099535	1362.711436	19.100000	-4.470000
	289.206542	1362.712625	19.108000	-4.490000
	289.299547	1362.712625	19.122000	-4.500000
	289.399553	1362.715003	19.112000	-4.480000
	289.499558	1362.718571	19.070000	-4.470000
	289.599564	1362.719760	19.098000	-4.490000
	289.699570	1362.724517	19.114000	-4.460000
	289.799576	1362.726895	19.094000	-4.480000
	289.899581	1362.728085	19.102000	-4.490000
	290.050590	1362.724517	19.096000	-4.530000
	290.149596	1362.729274	19.104000	-4.460000
	290.249601	1362.724517	19.106000	-4.540000
	290.349607	1362.726896	19.086000	-4.480000
	290.449613	1362.726896	19.110000	-4.500000
	290.549619	1362.724517	19.118000	-4.520000
	290.649624	1362.731653	19.100000	-4.440000
	290.749630	1362.731653	19.100000	-4.440000
	290.849636	1362.732842	19.104000	-4.490000
	290.949641	1362.732842	19.108000	-4.500000
	291.049647	1362.734031	19.098000	-4.490000
	291.149653	1362.728085	19.100000	-4.550000
	291.249659	1362.724517	19.094000	-4.530000
	291.349664	1362.725707	19.096000	-4.490000
	291.449670	1362.726896	19.102000	-4.490000
	291.552676	1362.729274	19.104000	-4.480000
	291.649682	1362.726896	19.092000	-4.520000
	291.749687	1362.728085	19.096000	-4.490000
	291.849693	1362.728085	19.104000	-4.500000
	291.949698	1362.724518	19.098000	-4.530000
	292.049704	1362.722139	19.106000	-4.520000
	292.149710	1362.719761	19.110000	-4.520000
	292.249716	1362.722139	19.090000	-4.480000
	292.349721	1362.723328	19.108000	-4.490000
	292.449727	1362.723328	19.108000	-4.490000
	292.549733	1362.728085	19.116000	-4.460000
	292.649739	1362.730464	19.116000	-4.480000
	292.749744	1362.730464	19.100000	-4.500000
	292.849750	1362.729275	19.108000	-4.510000
	292.949756	1362.729275	19.088000	-4.500000
	293.049761	1362.726896	19.082000	-4.520000
	293.149767	1362.725707	19.100000	-4.510000
	293.249773	1362.719761	19.082000	-4.550000
	293.356779	1362.722139	19.112000	-4.480000
	293.449784	1362.716194	19.108000	-4.550000
	293.549790	1362.715004	19.102000	-4.510000
	293.649796	1362.713815	19.114000	-4.510000
	293.749802	1362.720951	19.098000	-4.440000
	293.849807	1362.722140	19.116000	-4.490000
	293.949813	1362.717383	19.092000	-4.540000
	294.099822	1362.717383	19.092000	-4.540000
	294.199827	1362.720951	19.112000	-4.470000
	294.299833	1362.726897	19.092000	-4.450000
	294.399839	1362.720951	19.100000	-4.550000
	294.499845	1362.722140	19.106000	-4.490000
	294.599850	1362.723329	19.096000	-4.490000
	294.699856	1362.722140	19.106000	-4.510000
	294.799861	1362.726897	19.094000	-4.460000
	294.899868	1362.731654	19.088000	-4.460000
	294.999873	1362.731654	19.106000	-4.500000
	295.099879	1362.732843	19.106000	-4.490000
	295.199884	1362.736411	19.106000	-4.470000
	295.299890	1362.729276	19.112000	-4.560000
	295.399896	1362.730465	19.090000	-4.490000
	295.499902	1362.728087	19.094000	-4.520000
	295.603908	1362.728087	19.106000	-4.500000
	295.699913	1362.723330	19.094000	-4.540000
	295.799919	1362.728087	19.094000	-4.460000
	295.899924	1362.728087	19.094000	-4.460000
	295.999930	1362.734033	19.094000	-4.450000
	296.099936	1362.724520	19.096000	-4.580000
	296.199942	1362.730466	19.082000	-4.450000
	296.299947	1362.728087	19.114000	-4.520000
	296.399953	1362.725709	19.086000	-4.520000
	296.499959	1362.723330	19.074000	-4.520000
	296.600965	1362.724520	19.090000	-4.490000
	296.699970	1362.729277	19.090000	-4.460000
	296.799976	1362.723331	19.114000	-4.550000
	296.899981	1362.722141	19.096000	-4.510000
	296.999988	1362.734034	19.102000	-4.400000
	297.099993	1362.732845	19.102000	-4.510000
	297.199999	1362.730466	19.114000	-4.520000
	297.305005	1362.723331	19.114000	-4.560000
	297.400010	1362.724521	19.088000	-4.490000
	297.500016	1362.725710	19.086000	-4.490000
	297.600022	1362.722142	19.090000	-4.530000
	297.700027	1362.722142	19.092000	-4.500000
	297.800033	1362.719764	19.122000	-4.520000
	297.900039	1362.719764	19.108000	-4.500000
	298.000045	1362.719764	19.100000	-4.500000
	298.150053	1362.724521	19.104000	-4.460000
	298.250059	1362.719764	19.112000	-4.540000
	298.350065	1362.718575	19.102000	-4.510000
	298.450070	1362.718575	19.100000	-4.500000
	298.550076	1362.723332	19.110000	-4.460000
	298.650082	1362.713818	19.098000	-4.580000
	298.750088	1362.712629	19.118000	-4.510000
	298.850093	1362.712629	19.118000	-4.500000
	299.000102	1362.711440	19.106000	-4.510000
	299.100108	1362.712629	19.116000	-4.490000
	299.200113	1362.712629	19.116000	-4.490000
	299.300119	1362.713818	19.082000	-4.490000
	299.400125	1362.713818	19.098000	-4.500000
	299.500130	1362.722143	19.106000	-4.430000
	299.599136	1362.726900	19.116000	-4.460000
	299.699142	1362.726900	19.094000	-4.500000
	299.799148	1362.724521	19.116000	-4.520000
	299.899153	1362.724521	19.098000	-4.500000
	299.999159	1362.717386	19.116000	-4.560000
	300.099164	1362.716197	19.130000	-4.510000
	300.199171	1362.712630	19.126000	-4.530000
	300.299176	1362.710251	19.104000	-4.520000
	300.399182	1362.711441	19.086000	-4.490000
	300.503188	1362.713819	19.126000	-4.480000
	300.599193	1362.715008	19.110000	-4.490000
	300.699199	1362.719765	19.106000	-4.460000
	300.799205	1362.712630	19.110000	-4.560000
	300.899210	1362.709062	19.108000	-4.530000
	300.999216	1362.709062	19.108000	-4.530000
	301.099222	1362.707873	19.118000	-4.510000
	301.199228	1362.703117	19.114000	-4.540000
	301.299233	1362.701927	19.116000	-4.510000
	301.399239	1362.700738	19.110000	-4.510000
	301.499245	1362.703117	19.116000	-4.480000
	301.599250	1362.701927	19.120000	-4.510000
	301.699256	1362.701927	19.106000	-4.500000
	301.799262	1362.700738	19.100000	-4.510000
	301.899268	1362.697171	19.108000	-4.530000
	301.999273	1362.692414	19.112000	-4.540000
	302.099279	1362.698360	19.120000	-4.450000
	302.201285	1362.700739	19.098000	-4.480000
	302.299291	1362.695982	19.124000	-4.540000
	302.399296	1362.694793	19.114000	-4.510000
	302.499302	1362.697171	19.100000	-4.480000
	302.599308	1362.698360	19.100000	-4.490000
	302.699313	1362.697171	19.096000	-4.510000
	302.799319	1362.701928	19.110000	-4.460000
	302.899325	1362.703117	19.126000	-4.490000
	302.999331	1362.697171	19.120000	-4.550000
	303.149339	1362.703117	19.110000	-4.450000
	303.249345	1362.698361	19.110000	-4.540000
	303.349350	1362.698361	19.120000	-4.500000
	303.449356	1362.701928	19.096000	-4.470000
	303.549362	1362.697172	19.102000	-4.540000
	303.649368	1362.701928	19.124000	-4.460000
	303.749373	1362.697172	19.112000	-4.540000
	303.849379	1362.694793	19.108000	-4.520000
	303.999388	1362.694793	19.108000	-4.520000
	304.099393	1362.694793	19.096000	-4.500000
	304.204400	1362.694793	19.116000	-4.500000
	304.299405	1362.692415	19.116000	-4.520000
	304.399411	1362.691226	19.116000	-4.510000
	304.499416	1362.690037	19.092000	-4.510000
	304.599422	1362.690037	19.122000	-4.500000
	304.699428	1362.678146	19.122000	-4.600000
	304.799434	1362.673389	19.098000	-4.540000
	304.899439	1362.676957	19.110000	-4.470000
	304.999445	1362.679335	19.122000	-4.480000
	305.099451	1362.679335	19.124000	-4.500000
	305.199456	1362.678146	19.112000	-4.510000
	305.299462	1362.684092	19.114000	-4.450000
	305.401468	1362.685281	19.114000	-4.490000
	305.499474	1362.686470	19.108000	-4.490000
	305.599479	1362.695984	19.112000	-4.420000
	305.699485	1362.699551	19.124000	-4.470000
	305.799491	1362.703119	19.106000	-4.470000
	305.899497	1362.700741	19.102000	-4.520000
	305.999502	1362.700741	19.102000	-4.520000
	306.099508	1362.698362	19.106000	-4.520000
	306.199513	1362.693606	19.110000	-4.540000
	306.302519	1362.700741	19.118000	-4.440000
	306.399525	1362.697173	19.104000	-4.530000
	306.499531	1362.693606	19.120000	-4.530000
	306.599536	1362.698363	19.122000	-4.460000
	306.699542	1362.701930	19.118000	-4.470000
	306.799548	1362.700741	19.118000	-4.510000
	306.899554	1362.710255	19.104000	-4.420000
	307.004560	1362.704309	19.126000	-4.550000
	307.099565	1362.698363	19.122000	-4.550000
	307.199571	1362.695985	19.108000	-4.520000
	307.299576	1362.694796	19.122000	-4.510000
	307.399582	1362.698363	19.094000	-4.470000
	307.499588	1362.700742	19.130000	-4.480000
	307.599594	1362.700742	19.130000	-4.480000
	307.699599	1362.698363	19.092000	-4.520000
	307.799605	1362.699552	19.110000	-4.490000
	307.899611	1362.699552	19.124000	-4.500000
	307.999617	1362.698363	19.108000	-4.510000
	308.099622	1362.694796	19.134000	-4.530000
	308.199628	1362.698363	19.118000	-4.470000
	308.299634	1362.695985	19.114000	-4.520000
	308.399640	1362.697174	19.114000	-4.490000
	308.504645	1362.698363	19.136000	-4.490000
	308.599651	1362.697174	19.132000	-4.510000
	308.699656	1362.700742	19.128000	-4.470000
	308.799662	1362.705499	19.118000	-4.460000
	308.899668	1362.711445	19.128000	-4.450000
	308.999674	1362.715012	19.120000	-4.470000
	309.099679	1362.707877	19.110000	-4.560000
	309.249688	1362.700742	19.138000	-4.560000
	309.349694	1362.695986	19.120000	-4.540000
	309.449699	1362.701932	19.112000	-4.450000
	309.549705	1362.705499	19.118000	-4.470000
	309.649711	1362.707878	19.120000	-4.480000
	309.749717	1362.711445	19.122000	-4.470000
	309.849722	1362.710256	19.126000	-4.510000
	309.949728	1362.712635	19.126000	-4.480000
	310.099737	1362.712635	19.126000	-4.480000
	310.199742	1362.706689	19.114000	-4.550000
	310.299748	1362.713824	19.106000	-4.440000
	310.399754	1362.717392	19.108000	-4.470000
	310.499760	1362.716202	19.110000	-4.510000
	310.599765	1362.709067	19.118000	-4.560000
	310.699771	1362.709067	19.116000	-4.500000
	310.799777	1362.707878	19.104000	-4.510000
	310.899782	1362.707878	19.124000	-4.500000
	310.999788	1362.712635	19.106000	-4.460000
	311.099794	1362.712635	19.130000	-4.500000
	311.199800	1362.703122	19.110000	-4.580000
	311.299805	1362.709068	19.116000	-4.450000
	311.399811	1362.712636	19.118000	-4.470000
	311.499817	1362.716203	19.112000	-4.470000
	311.549819	1362.712636	19.122000	-4.530000
	311.699828	1362.712636	19.122000	-4.530000
	311.799834	1362.703122	19.120000	-4.580000
	311.899839	1362.709068	19.100000	-4.450000
	311.999846	1362.705501	19.110000	-4.530000
	312.099851	1362.711447	19.084000	-4.450000
	312.199857	1362.709069	19.102000	-4.520000
	312.299862	1362.709069	19.112000	-4.500000
	312.399868	1362.710258	19.106000	-4.490000
	312.499874	1362.716204	19.108000	-4.450000
	312.599880	1362.715015	19.132000	-4.510000
	312.699885	1362.715015	19.116000	-4.500000
	312.799891	1362.713826	19.130000	-4.510000
	312.899897	1362.712636	19.108000	-4.510000
	312.999903	1362.707880	19.122000	-4.540000
	313.099908	1362.706691	19.112000	-4.510000
	313.201914	1362.711447	19.104000	-4.460000
	313.299920	1362.711447	19.110000	-4.500000
	313.399925	1362.711447	19.110000	-4.500000
	313.499931	1362.709069	19.116000	-4.520000
	313.599937	1362.709069	19.104000	-4.500000
	313.699943	1362.713826	19.114000	-4.460000
	313.799948	1362.706691	19.110000	-4.560000
	313.899954	1362.706691	19.120000	-4.500000
	313.999960	1362.711448	19.104000	-4.460000
	314.099966	1362.713826	19.102000	-4.480000
	314.199971	1362.711448	19.116000	-4.520000
	314.299977	1362.711448	19.122000	-4.500000
	314.399982	1362.716205	19.112000	-4.460000
	314.499989	1362.709070	19.118000	-4.560000
	314.599994	1362.705502	19.112000	-4.530000
	314.700000	1362.698367	19.128000	-4.560000
	314.800005	1362.705502	19.114000	-4.440000
	314.901011	1362.700746	19.124000	-4.540000
	315.000017	1362.705503	19.118000	-4.460000
	315.100023	1362.715016	19.114000	-4.420000
	315.200028	1362.715016	19.114000	-4.420000
	315.300034	1362.712638	19.108000	-4.520000
	315.400040	1362.709070	19.114000	-4.530000
	315.500046	1362.705503	19.110000	-4.530000
	315.600051	1362.713828	19.108000	-4.430000
	315.700057	1362.709071	19.116000	-4.540000
	315.800063	1362.707882	19.110000	-4.510000
	315.900068	1362.703125	19.104000	-4.540000
	316.000074	1362.700747	19.122000	-4.520000
	316.100080	1362.705503	19.110000	-4.460000
	316.200086	1362.711449	19.122000	-4.450000
	316.300091	1362.709071	19.100000	-4.520000
	316.400097	1362.706693	19.114000	-4.520000
	316.501103	1362.705504	19.102000	-4.510000
	316.600109	1362.701936	19.122000	-4.530000
	316.700114	1362.700747	19.116000	-4.510000
	316.800120	1362.710261	19.116000	-4.420000
	316.900126	1362.712639	19.116000	-4.480000
	316.999131	1362.710261	19.110000	-4.520000
	317.099137	1362.709072	19.100000	-4.510000
	317.199143	1362.713828	19.104000	-4.460000
	317.299149	1362.711450	19.110000	-4.520000
	317.449157	1362.709072	19.114000	-4.520000
	317.549163	1362.713828	19.114000	-4.460000
	317.649168	1362.716207	19.114000	-4.480000
	317.749174	1362.715018	19.110000	-4.510000
	317.849180	1362.711450	19.106000	-4.530000
	317.949185	1362.715018	19.116000	-4.470000
	318.049191	1362.712639	19.126000	-4.520000
	318.199200	1362.715018	19.120000	-4.480000
	318.299206	1362.716207	19.088000	-4.490000
	318.399211	1362.716207	19.088000	-4.490000
	318.499217	1362.716207	19.116000	-4.500000
	318.599223	1362.711450	19.102000	-4.540000
	318.699228	1362.712640	19.100000	-4.490000
	318.799234	1362.717396	19.096000	-4.460000
	318.899240	1362.712640	19.096000	-4.540000
	318.999246	1362.712640	19.102000	-4.500000
	319.100252	1362.709072	19.106000	-4.530000
	319.199257	1362.710261	19.116000	-4.490000
	319.299263	1362.715018	19.094000	-4.460000
	319.399269	1362.709072	19.130000	-4.550000
	319.499274	1362.709072	19.110000	-4.500000
	319.599280	1362.711451	19.124000	-4.480000
	319.699286	1362.710262	19.124000	-4.510000
	319.805292	1362.710262	19.118000	-4.500000
	319.899297	1362.705505	19.110000	-4.540000
	319.999303	1362.712640	19.116000	-4.440000
	320.099308	1362.712640	19.116000	-4.440000
	320.199314	1362.712640	19.126000	-4.500000
	320.299320	1362.710262	19.088000	-4.520000
	320.399326	1362.709073	19.090000	-4.510000
	320.499331	1362.713829	19.114000	-4.460000
	320.599337	1362.712640	19.124000	-4.510000
	320.699343	1362.711451	19.100000	-4.510000
	320.799349	1362.717397	19.098000	-4.450000
	320.899354	1362.717397	19.104000	-4.500000
	320.999360	1362.719776	19.118000	-4.480000
	321.099366	1362.720965	19.128000	-4.490000
	321.199371	1362.717397	19.124000	-4.530000
	321.299377	1362.705506	19.120000	-4.600000
	321.399383	1362.709073	19.094000	-4.470000
	321.505389	1362.718587	19.120000	-4.420000
	321.599394	1362.720966	19.102000	-4.480000
	321.699400	1362.715020	19.116000	-4.550000
	321.799406	1362.722155	19.120000	-4.440000
	321.899412	1362.722155	19.120000	-4.440000
	321.999417	1362.731669	19.114000	-4.420000
	322.099423	1362.728101	19.120000	-4.530000
	322.199429	1362.730480	19.116000	-4.480000
	322.299435	1362.730480	19.120000	-4.500000
	322.399440	1362.725723	19.122000	-4.540000
	322.499446	1362.725723	19.112000	-4.500000
	322.599452	1362.728102	19.126000	-4.480000
	322.699457	1362.731669	19.114000	-4.470000
	322.799463	1362.730480	19.120000	-4.510000
	322.899469	1362.728102	19.124000	-4.520000
	322.999475	1362.729291	19.112000	-4.490000
	323.104480	1362.723345	19.126000	-4.550000
	323.199486	1362.730480	19.132000	-4.440000
	323.299492	1362.734048	19.112000	-4.470000
	323.399498	1362.739994	19.124000	-4.450000
	323.499503	1362.742373	19.120000	-4.480000
	323.599509	1362.738805	19.120000	-4.530000
	323.699514	1362.738805	19.114000	-4.500000
	323.799520	1362.737616	19.124000	-4.510000
	323.949529	1362.741184	19.106000	-4.470000
	324.049535	1362.738805	19.088000	-4.520000
	324.149540	1362.736427	19.108000	-4.520000
	324.249546	1362.735238	19.102000	-4.510000
	324.349552	1362.728102	19.110000	-4.560000
	324.449557	1362.725724	19.122000	-4.520000
	324.549563	1362.729292	19.118000	-4.470000
	324.649569	1362.726913	19.128000	-4.520000
	324.799578	1362.729292	19.122000	-4.480000
	324.899583	1362.719778	19.108000	-4.580000
	324.999589	1362.718589	19.130000	-4.510000
	325.099595	1362.718589	19.130000	-4.540000
	325.199600	1362.713833	19.108000	-4.540000
	325.299606	1362.711454	19.104000	-4.520000
	325.399612	1362.709076	19.102000	-4.520000
	325.499618	1362.715022	19.092000	-4.450000
	325.600623	1362.718590	19.118000	-4.470000
	325.699629	1362.717400	19.090000	-4.510000
	325.799635	1362.709076	19.118000	-4.570000
	325.899641	1362.710265	19.126000	-4.490000
	326.002646	1362.711455	19.120000	-4.490000
	326.099652	1362.712644	19.118000	-4.490000
	326.201658	1362.713833	19.116000	-4.490000
	326.299663	1362.706698	19.112000	-4.560000
	326.399669	1362.707887	19.122000	-4.490000
	326.499675	1362.709076	19.110000	-4.490000
	326.599680	1362.703131	19.126000	-4.550000
	326.699686	1362.701941	19.094000	-4.510000
	326.850695	1362.707887	19.114000	-4.450000
	326.949700	1362.709077	19.114000	-4.490000
	327.049706	1362.713833	19.104000	-4.460000
	327.149712	1362.713833	19.110000	-4.500000
	327.249718	1362.713833	19.110000	-4.500000
	327.349723	1362.713833	19.118000	-4.500000
	327.449729	1362.725726	19.086000	-4.400000
	327.599738	1362.724537	19.116000	-4.510000
	327.699743	1362.735240	19.118000	-4.410000
	327.799749	1362.734051	19.110000	-4.510000
	327.899755	1362.729294	19.118000	-4.540000
	328.049763	1362.724537	19.110000	-4.540000
	328.153769	1362.724537	19.098000	-4.500000
	328.249775	1362.720970	19.110000	-4.530000
	328.349781	1362.728105	19.098000	-4.440000
	328.449786	1362.719781	19.124000	-4.570000
	328.599795	1362.719781	19.114000	-4.500000
	328.699800	1362.724538	19.114000	-4.460000
	328.799806	1362.726916	19.110000	-4.480000
	328.899812	1362.725727	19.104000	-4.510000
	328.999818	1362.722159	19.124000	-4.530000
	329.149827	1362.722159	19.124000	-4.530000
	329.249832	1362.717403	19.110000	-4.540000
	329.349838	1362.717403	19.094000	-4.500000
	329.449843	1362.716214	19.136000	-4.510000
	329.549849	1362.724538	19.110000	-4.430000
	329.699858	1362.726917	19.096000	-4.480000
	329.799863	1362.726917	19.106000	-4.500000
	329.899869	1362.725727	19.122000	-4.510000
	330.004875	1362.729295	19.116000	-4.470000
	330.099881	1362.722160	19.114000	-4.560000
	330.199886	1362.722160	19.124000	-4.500000
	330.299892	1362.722160	19.112000	-4.500000
	330.412899	1362.720971	19.116000	-4.510000
	330.500904	1362.720971	19.116000	-4.510000
	330.606910	1362.722160	19.096000	-4.490000
	330.699915	1362.717403	19.118000	-4.540000
	330.801921	1362.715025	19.124000	-4.520000
	330.899926	1362.716214	19.112000	-4.490000
	330.999932	1362.718593	19.118000	-4.480000
	331.099938	1362.722160	19.114000	-4.470000
	331.200943	1362.725728	19.130000	-4.470000
	331.299949	1362.723349	19.130000	-4.520000
	331.399955	1362.723349	19.130000	-4.500000
	331.507961	1362.720971	19.140000	-4.520000
	331.599967	1362.715025	19.104000	-4.550000
	331.699972	1362.715025	19.104000	-4.550000
	331.799978	1362.712647	19.116000	-4.520000
	331.899983	1362.716214	19.096000	-4.470000
	331.999990	1362.716214	19.130000	-4.500000
	332.099995	1362.710269	19.116000	-4.550000
	332.200001	1362.711458	19.112000	-4.490000
	332.303007	1362.705512	19.112000	-4.550000
	332.400012	1362.700755	19.114000	-4.540000
	332.504018	1362.705512	19.130000	-4.460000
	332.600024	1362.703134	19.096000	-4.520000
	332.700029	1362.698377	19.104000	-4.540000
	332.800035	1362.698377	19.104000	-4.540000
	332.900041	1362.701945	19.116000	-4.470000
	333.000047	1362.706701	19.100000	-4.460000
	333.100052	1362.705512	19.124000	-4.510000
	333.200058	1362.705512	19.116000	-4.500000
	333.300064	1362.710269	19.120000	-4.460000
	333.404069	1362.710269	19.116000	-4.500000
	333.500075	1362.713837	19.116000	-4.470000
	333.600081	1362.711458	19.104000	-4.520000
	333.700087	1362.775692	19.498000	-3.960000
	333.800092	1362.716241	19.310000	-5.000000
	333.900098	1362.674625	19.326000	-4.850000
	334.050107	1362.647277	19.322000	-4.730000
	334.150112	1362.624685	19.318000	-4.690000
	334.250118	1362.608038	19.300000	-4.640000
	334.350124	1362.592581	19.298000	-4.630000
	334.499132	1362.574746	19.290000	-4.650000
	334.599138	1362.559289	19.320000	-4.630000
	334.699144	1362.545021	19.322000	-4.620000
	334.799150	1362.539076	19.326000	-4.550000
	334.949158	1362.536698	19.316000	-4.520000
	335.049164	1362.529564	19.304000	-4.560000
	335.149169	1362.523619	19.300000	-4.550000
	335.249175	1362.520052	19.314000	-4.530000
	335.399184	1362.514107	19.310000	-4.550000
	335.499189	1362.514107	19.310000	-4.550000
	335.599195	1362.509351	19.312000	-4.540000
	335.699201	1362.508162	19.302000	-4.510000
	335.799207	1362.511729	19.292000	-4.470000
	335.899212	1362.515296	19.318000	-4.470000
	335.999218	1362.518863	19.306000	-4.470000
	336.099224	1362.516485	19.314000	-4.520000
	336.199230	1362.518863	19.296000	-4.480000
	336.308236	1362.527186	19.310000	-4.430000
	336.399241	1362.523619	19.316000	-4.530000
	336.499247	1362.523619	19.316000	-4.530000
	336.599252	1362.517674	19.322000	-4.550000
	336.699258	1362.516485	19.318000	-4.510000
	336.799264	1362.518863	19.314000	-4.480000
	336.899270	1362.520052	19.318000	-4.490000
	336.999275	1362.515296	19.298000	-4.540000
	337.099281	1362.510540	19.308000	-4.540000
	337.206287	1362.508162	19.300000	-4.520000
	337.299293	1362.511729	19.316000	-4.470000
	337.399298	1362.509351	19.316000	-4.520000
	337.499304	1362.509351	19.314000	-4.500000
	337.599309	1362.510540	19.312000	-4.490000
	337.699315	1362.512918	19.304000	-4.480000
	337.849324	1362.515297	19.320000	-4.480000
	337.949329	1362.520053	19.322000	-4.460000
	338.049335	1362.521242	19.312000	-4.490000
	338.199344	1362.522431	19.320000	-4.490000
	338.299350	1362.521242	19.304000	-4.510000
	338.399355	1362.525998	19.306000	-4.460000
	338.511362	1362.527187	19.308000	-4.490000
	338.599367	1362.523620	19.302000	-4.530000
	338.749375	1362.529565	19.304000	-4.450000
	338.850381	1362.529565	19.304000	-4.450000
	338.949387	1362.529565	19.314000	-4.500000
	339.049393	1362.533132	19.278000	-4.470000
	339.149398	1362.525998	19.310000	-4.560000
	339.249404	1362.529565	19.308000	-4.470000
	339.349410	1362.531943	19.316000	-4.480000
	339.449415	1362.531943	19.304000	-4.500000
	339.550421	1362.524809	19.322000	-4.560000
	339.659427	1362.527188	19.304000	-4.480000
	339.749433	1362.531944	19.284000	-4.460000
	339.849438	1362.530755	19.312000	-4.510000
	339.949444	1362.529566	19.304000	-4.510000
	340.049450	1362.529566	19.322000	-4.500000
	340.199458	1362.527188	19.286000	-4.520000
	340.300464	1362.524810	19.314000	-4.520000
	340.399470	1362.523621	19.320000	-4.510000
	340.499475	1362.523621	19.328000	-4.500000
	340.649484	1362.530755	19.302000	-4.440000
	340.749490	1362.524810	19.308000	-4.550000
	340.849495	1362.533133	19.288000	-4.430000
	340.949501	1362.527188	19.280000	-4.550000
	341.049507	1362.527188	19.280000	-4.550000
	341.199515	1362.523621	19.332000	-4.530000
	341.299521	1362.518865	19.292000	-4.540000
	341.399527	1362.520054	19.292000	-4.490000
	341.499533	1362.510542	19.304000	-4.580000
	341.599538	1362.511731	19.316000	-4.490000
	341.699544	1362.508164	19.298000	-4.530000
	341.799550	1362.508164	19.326000	-4.500000
	341.899556	1362.508164	19.312000	-4.500000
	342.008562	1362.510542	19.292000	-4.480000
	342.099567	1362.518866	19.314000	-4.430000
	342.199573	1362.521244	19.300000	-4.480000
	342.299578	1362.517677	19.298000	-4.530000
	342.399584	1362.517677	19.298000	-4.530000
	342.499590	1362.522433	19.294000	-4.460000
	342.599596	1362.524811	19.312000	-4.480000
	342.699601	1362.518866	19.308000	-4.550000
	342.799607	1362.516488	19.314000	-4.520000
	342.906613	1362.516488	19.306000	-4.500000
	343.005619	1362.523622	19.310000	-4.440000
	343.099624	1362.524811	19.324000	-4.490000
	343.199630	1362.527190	19.310000	-4.480000
	343.299635	1362.524811	19.312000	-4.520000
	343.399642	1362.518866	19.322000	-4.550000
	343.549650	1362.517677	19.312000	-4.510000
	343.649656	1362.521245	19.300000	-4.470000
	343.749661	1362.526001	19.286000	-4.460000
	343.849667	1362.531946	19.302000	-4.450000
	343.999676	1362.537891	19.302000	-4.450000
	344.099681	1362.540269	19.304000	-4.480000
	344.199687	1362.540269	19.306000	-4.500000
	344.299693	1362.537891	19.308000	-4.520000
	344.449701	1362.536702	19.294000	-4.510000
	344.549707	1362.535513	19.320000	-4.510000
	344.649713	1362.527190	19.314000	-4.570000
	344.749719	1362.529568	19.316000	-4.480000
	344.849724	1362.534325	19.284000	-4.460000
	344.999733	1362.526002	19.306000	-4.570000
	345.099739	1362.522435	19.296000	-4.530000
	345.199744	1362.517679	19.308000	-4.540000
	345.299750	1362.517679	19.328000	-4.500000
	345.449759	1362.520057	19.312000	-4.480000
	345.549764	1362.521246	19.308000	-4.490000
	345.649770	1362.515301	19.300000	-4.550000
	345.749776	1362.514112	19.326000	-4.510000
	345.899784	1362.514112	19.318000	-4.500000
	345.999790	1362.518868	19.314000	-4.460000
	346.099796	1362.518868	19.314000	-4.460000
	346.199801	1362.515301	19.312000	-4.530000
	346.299807	1362.520057	19.290000	-4.460000
	346.399813	1362.520057	19.330000	-4.500000
	346.499819	1362.517679	19.304000	-4.520000
	346.599824	1362.514112	19.326000	-4.530000
	346.699830	1362.520057	19.298000	-4.450000
	346.815837	1362.516490	19.304000	-4.530000
	346.899841	1362.517679	19.316000	-4.490000
	346.999847	1362.511734	19.308000	-4.550000
	347.099853	1362.511734	19.308000	-4.550000
	347.199859	1362.510545	19.314000	-4.510000
	347.299864	1362.512923	19.318000	-4.480000
	347.399870	1362.510545	19.308000	-4.520000
	347.499876	1362.515301	19.306000	-4.460000
	347.599882	1362.510545	19.298000	-4.540000
	347.705888	1362.510545	19.314000	-4.500000
	347.799893	1362.508167	19.290000	-4.520000
	347.899899	1362.515302	19.314000	-4.440000
	347.999905	1362.516491	19.306000	-4.490000
	348.099910	1362.517680	19.306000	-4.490000
	348.199916	1362.522436	19.296000	-4.460000
	348.349925	1362.527192	19.314000	-4.460000
	348.449930	1362.529570	19.308000	-4.480000
	348.549936	1362.523625	19.316000	-4.550000
	348.649941	1362.527192	19.304000	-4.470000
	348.799950	1362.528381	19.304000	-4.490000
	348.899956	1362.524814	19.322000	-4.530000
	348.999962	1362.526003	19.298000	-4.490000
	349.099967	1362.524814	19.310000	-4.510000
	349.249976	1362.527192	19.312000	-4.480000
	349.349982	1362.529570	19.310000	-4.480000
	349.449987	1362.527192	19.298000	-4.520000
	349.549993	1362.529570	19.324000	-4.480000
	349.700002	1362.529570	19.324000	-4.480000
	349.800007	1362.529570	19.302000	-4.500000
	349.900013	1362.535516	19.318000	-4.450000
	350.000019	1362.537894	19.306000	-4.480000
	350.100025	1362.533138	19.280000	-4.540000
	350.200030	1362.535516	19.296000	-4.480000
	350.300036	1362.530760	19.298000	-4.540000
	350.400042	1362.527193	19.314000	-4.530000
	350.503047	1362.529571	19.326000	-4.480000
	350.608054	1362.527193	19.296000	-4.520000
	350.700059	1362.527193	19.296000	-4.520000
	350.800065	1362.530760	19.296000	-4.470000
	350.900070	1362.530760	19.314000	-4.500000
	351.000076	1362.531949	19.316000	-4.490000
	351.100082	1362.530760	19.308000	-4.510000
	351.200088	1362.531949	19.294000	-4.490000
	351.300093	1362.528382	19.296000	-4.530000
	351.400099	1362.527193	19.310000	-4.510000
	351.502105	1362.528382	19.302000	-4.490000
	351.600111	1362.531949	19.318000	-4.470000
	351.700116	1362.529571	19.310000	-4.520000
	351.800122	1362.533138	19.326000	-4.470000
	351.900127	1362.539083	19.304000	-4.450000
	352.055136	1362.535516	19.312000	-4.530000
	352.149142	1362.530760	19.302000	-4.540000
	352.249147	1362.533138	19.318000	-4.480000
	352.349153	1362.533138	19.316000	-4.500000
	352.449159	1362.531949	19.302000	-4.510000
	352.599167	1362.530760	19.300000	-4.510000
	352.699173	1362.535516	19.312000	-4.460000
	352.799179	1362.529571	19.314000	-4.550000
	352.899185	1362.533138	19.324000	-4.470000
	353.050193	1362.534328	19.292000	-4.490000
	353.149199	1362.529571	19.316000	-4.540000
	353.249205	1362.529571	19.316000	-4.540000
	353.349210	1362.526004	19.306000	-4.530000
	353.449216	1362.530761	19.300000	-4.460000
	353.549222	1362.534328	19.312000	-4.470000
	353.649228	1362.535517	19.302000	-4.490000
	353.749233	1362.531950	19.324000	-4.530000
	353.851239	1362.531950	19.322000	-4.500000
	353.961246	1362.540273	19.308000	-4.430000
	354.049251	1362.537895	19.312000	-4.520000
	354.149256	1362.533139	19.310000	-4.540000
	354.249262	1362.529572	19.302000	-4.530000
	354.349267	1362.528383	19.304000	-4.510000
	354.499276	1362.535517	19.312000	-4.440000
	354.599282	1362.528383	19.310000	-4.560000
	354.699287	1362.529572	19.304000	-4.490000
	354.799294	1362.530761	19.316000	-4.490000
	354.949302	1362.533140	19.304000	-4.480000
	355.049308	1362.537896	19.302000	-4.460000
	355.149313	1362.537896	19.314000	-4.500000
	355.249319	1362.543841	19.312000	-4.450000
	355.349325	1362.541463	19.310000	-4.520000
	355.499333	1362.545030	19.302000	-4.470000
	355.599339	1362.540274	19.320000	-4.540000
	355.699345	1362.543841	19.322000	-4.470000
	355.799351	1362.545030	19.316000	-4.490000
	355.949359	1362.550976	19.292000	-4.450000
	356.049365	1362.552165	19.322000	-4.490000
	356.149371	1362.543842	19.300000	-4.570000
	356.300379	1362.542653	19.314000	-4.510000
	356.399385	1362.542653	19.314000	-4.510000
	356.501391	1362.537896	19.332000	-4.540000
	356.600397	1362.539085	19.330000	-4.490000
	356.649399	1362.541464	19.302000	-4.480000
	356.799408	1362.540275	19.300000	-4.510000
	356.899414	1362.537896	19.304000	-4.520000
	356.999419	1362.540275	19.288000	-4.480000
	357.099425	1362.543842	19.312000	-4.470000
	357.199430	1362.541464	19.292000	-4.520000
	357.299437	1362.540275	19.292000	-4.510000
	357.399442	1362.545031	19.308000	-4.460000
	357.499448	1362.543842	19.318000	-4.510000
	357.599453	1362.535519	19.306000	-4.570000
	357.699459	1362.536708	19.310000	-4.490000
	357.803465	1362.535519	19.294000	-4.510000
	357.899471	1362.540275	19.316000	-4.460000
	357.999476	1362.539086	19.294000	-4.510000
	358.099482	1362.540275	19.308000	-4.490000
	358.199488	1362.537897	19.300000	-4.520000
	358.299494	1362.533141	19.298000	-4.540000
	358.399499	1362.535519	19.312000	-4.480000
	358.499505	1362.524818	19.320000	-4.590000
	358.651514	1362.526007	19.310000	-4.490000
	358.749519	1362.528385	19.308000	-4.480000
	358.849525	1362.530763	19.298000	-4.480000
	358.949531	1362.528385	19.314000	-4.520000
	359.049537	1362.530763	19.288000	-4.480000
	359.149542	1362.531952	19.322000	-4.490000
	359.249548	1362.531952	19.322000	-4.490000
	359.349554	1362.536709	19.300000	-4.460000
	359.449559	1362.540276	19.300000	-4.470000
	359.549565	1362.537898	19.308000	-4.520000
	359.650571	1362.535520	19.310000	-4.520000
	359.755577	1362.534331	19.312000	-4.510000
	359.849582	1362.537898	19.308000	-4.470000
	359.959589	1362.541465	19.318000	-4.470000
	360.049594	1362.545032	19.308000	-4.470000
	360.154600	1362.547410	19.310000	-4.480000
	360.249605	1362.545032	19.290000	-4.520000
	360.349611	1362.547410	19.310000	-4.480000
	360.449616	1362.543843	19.312000	-4.530000
	360.559623	1362.545032	19.314000	-4.490000
	360.699631	1362.545032	19.314000	-4.490000
	360.799636	1362.546221	19.298000	-4.490000
	360.899642	1362.548599	19.312000	-4.480000
	360.999648	1362.546221	19.300000	-4.520000
	361.099654	1362.553356	19.306000	-4.440000
	361.199659	1362.558112	19.306000	-4.460000
	361.299665	1362.559301	19.302000	-4.490000
	361.399671	1362.556923	19.300000	-4.520000
	361.499677	1362.554545	19.302000	-4.520000
	361.599682	1362.555734	19.302000	-4.490000
	361.699688	1362.555734	19.302000	-4.500000
	361.799694	1362.547411	19.282000	-4.570000
	361.899700	1362.542655	19.310000	-4.540000
	361.999705	1362.543844	19.316000	-4.490000
	362.099711	1362.542655	19.296000	-4.510000
	362.149714	1362.541466	19.302000	-4.510000
	362.299722	1362.550978	19.312000	-4.420000
	362.399728	1362.549789	19.292000	-4.510000
	362.499734	1362.549789	19.292000	-4.510000
	362.599740	1362.547411	19.314000	-4.520000
	362.699745	1362.545033	19.316000	-4.520000
	362.799751	1362.545033	19.308000	-4.500000
	362.899757	1362.545033	19.308000	-4.500000
	362.999763	1362.547411	19.304000	-4.480000
	363.099768	1362.545033	19.294000	-4.520000
	363.199774	1362.545033	19.312000	-4.500000
	363.299779	1362.546222	19.308000	-4.490000
	363.399786	1362.549789	19.300000	-4.470000
	363.499791	1362.546222	19.296000	-4.530000
	363.606797	1362.542655	19.306000	-4.530000
	363.699802	1362.540277	19.306000	-4.520000
	363.799808	1362.543844	19.296000	-4.470000
	363.899814	1362.545033	19.294000	-4.490000
	363.999820	1362.547412	19.308000	-4.480000
	364.099825	1362.542655	19.304000	-4.540000
	364.199831	1362.539088	19.292000	-4.530000
	364.299837	1362.539088	19.292000	-4.530000
	364.399843	1362.541466	19.308000	-4.480000
	364.499848	1362.545034	19.302000	-4.470000
	364.599854	1362.535522	19.308000	-4.580000
	364.699860	1362.533144	19.296000	-4.520000
	364.799865	1362.540278	19.306000	-4.440000
	364.909872	1362.548601	19.302000	-4.430000
	364.999877	1362.547412	19.314000	-4.510000
	365.099883	1362.547412	19.314000	-4.500000
	365.199888	1362.548601	19.298000	-4.490000
	365.299894	1362.553358	19.314000	-4.460000
	365.449903	1362.558114	19.302000	-4.460000
	365.549908	1362.560492	19.312000	-4.480000
	365.649914	1362.561681	19.320000	-4.490000
	365.749920	1362.554547	19.302000	-4.560000
	365.899928	1362.549791	19.310000	-4.540000
	365.999934	1362.554547	19.328000	-4.460000
	366.099940	1362.549791	19.316000	-4.540000
	366.199945	1362.558115	19.310000	-4.430000
	366.299951	1362.562871	19.320000	-4.460000
	366.449960	1362.564060	19.298000	-4.490000
	366.549965	1362.566438	19.294000	-4.480000
	366.649971	1362.560493	19.294000	-4.550000
	366.749977	1362.559304	19.288000	-4.510000
	366.899985	1362.553359	19.304000	-4.550000
	366.999991	1362.550981	19.306000	-4.520000
	367.099997	1362.554548	19.284000	-4.470000
	367.200003	1362.562872	19.308000	-4.430000
	367.350011	1362.561682	19.286000	-4.510000
	367.450017	1362.561682	19.286000	-4.510000
	367.550023	1362.562872	19.302000	-4.490000
	367.650028	1362.562872	19.296000	-4.500000
	367.750034	1362.555737	19.304000	-4.560000
	367.850040	1362.560494	19.306000	-4.460000
	367.950046	1362.559305	19.308000	-4.510000
	368.050051	1362.561683	19.304000	-4.480000
	368.152057	1362.554549	19.318000	-4.560000
	368.266064	1362.552171	19.304000	-4.520000
	368.350069	1362.555738	19.302000	-4.470000
	368.450074	1362.560494	19.302000	-4.460000
	368.550080	1362.561683	19.296000	-4.490000
	368.650085	1362.556927	19.296000	-4.540000
	368.800094	1362.558116	19.292000	-4.490000
	368.900100	1362.559305	19.294000	-4.490000
	369.000105	1362.561683	19.296000	-4.480000
	369.100111	1362.553360	19.298000	-4.570000
	369.250120	1362.549793	19.314000	-4.530000
	369.350126	1362.555738	19.316000	-4.450000
	369.449131	1362.550982	19.292000	-4.540000
	369.549137	1362.554549	19.286000	-4.470000
	369.699146	1362.553360	19.308000	-4.510000
	369.799151	1362.554549	19.304000	-4.490000
	369.899157	1362.555738	19.302000	-4.490000
	369.999163	1362.560495	19.302000	-4.460000
	370.099168	1362.568818	19.312000	-4.430000
	370.249177	1362.564062	19.294000	-4.540000
	370.349183	1362.565251	19.300000	-4.490000
	370.449189	1362.564062	19.294000	-4.510000
	370.549194	1362.571197	19.304000	-4.440000
	370.699203	1362.570008	19.302000	-4.510000
	370.799209	1362.565252	19.304000	-4.540000
	370.899214	1362.559306	19.292000	-4.550000
	370.999220	1362.559306	19.302000	-4.500000
	371.149229	1362.559306	19.302000	-4.500000
	371.249234	1362.560495	19.298000	-4.490000
	371.349240	1362.565252	19.298000	-4.460000
	371.449246	1362.567630	19.316000	-4.480000
	371.549252	1362.566441	19.298000	-4.510000
	371.649257	1362.573575	19.310000	-4.440000
	371.749263	1362.575954	19.306000	-4.480000
	371.849268	1362.571197	19.282000	-4.540000
	371.950274	1362.567630	19.306000	-4.530000
	371.999277	1362.566441	19.310000	-4.510000
	372.149286	1362.567630	19.306000	-4.490000
	372.249291	1362.567630	19.306000	-4.500000
	372.349297	1362.567630	19.288000	-4.500000
	372.450303	1362.571197	19.302000	-4.470000
	372.600311	1362.573576	19.296000	-4.480000
	372.699317	1362.572386	19.310000	-4.510000
	372.799323	1362.574765	19.306000	-4.480000
	372.899329	1362.572387	19.298000	-4.520000
	373.049337	1362.570008	19.304000	-4.520000
	373.149343	1362.568819	19.276000	-4.510000
	373.249349	1362.568819	19.306000	-4.500000
	373.349354	1362.573576	19.286000	-4.460000
	373.449360	1362.573576	19.288000	-4.500000
	373.599369	1362.577143	19.316000	-4.470000
	373.699374	1362.575954	19.302000	-4.510000
	373.799380	1362.577143	19.300000	-4.490000
	373.952389	1362.572387	19.320000	-4.540000
	374.049395	1362.570009	19.296000	-4.520000
	374.149400	1362.570009	19.304000	-4.500000
	374.249406	1362.574765	19.312000	-4.460000
	374.349411	1362.577143	19.302000	-4.480000
	374.499420	1362.573576	19.310000	-4.530000
	374.600426	1362.573576	19.292000	-4.500000
	374.700432	1362.568820	19.302000	-4.540000
	374.802437	1362.568820	19.302000	-4.540000
	374.899443	1362.573576	19.326000	-4.460000
	374.999449	1362.572387	19.310000	-4.510000
	375.099454	1362.562875	19.288000	-4.580000
	375.199460	1362.566442	19.294000	-4.470000
	375.349469	1362.566442	19.308000	-4.500000
	375.399472	1362.573577	19.300000	-4.440000
	375.505478	1362.568820	19.330000	-4.540000
	375.649486	1362.570010	19.292000	-4.490000
	375.749492	1362.567631	19.314000	-4.520000
	375.849497	1362.570010	19.302000	-4.480000
	375.949503	1362.568820	19.308000	-4.510000
	376.049509	1362.571199	19.300000	-4.480000
	376.149515	1362.575955	19.296000	-4.460000
	376.199517	1362.570010	19.306000	-4.550000
	376.349526	1362.573577	19.324000	-4.470000
	376.449532	1362.573577	19.294000	-4.500000
	376.549537	1362.579522	19.308000	-4.450000
	376.649543	1362.578333	19.308000	-4.510000
	376.749549	1362.580712	19.298000	-4.480000
	376.849555	1362.585468	19.300000	-4.460000
	376.949560	1362.585468	19.300000	-4.460000
	377.049566	1362.583090	19.314000	-4.520000
	377.149572	1362.580712	19.288000	-4.520000
	377.249578	1362.584279	19.310000	-4.470000
	377.349583	1362.584279	19.306000	-4.500000
	377.449589	1362.579523	19.308000	-4.540000
	377.549594	1362.585468	19.290000	-4.450000
	377.649601	1362.586657	19.306000	-4.490000
	377.749606	1362.585468	19.310000	-4.510000
	377.856612	1362.583090	19.298000	-4.520000
	377.949617	1362.579523	19.300000	-4.530000
	378.049623	1362.579523	19.302000	-4.500000
	378.149629	1362.580712	19.306000	-4.490000
	378.249635	1362.581901	19.296000	-4.490000
	378.366642	1362.581901	19.298000	-4.500000
	378.449646	1362.579523	19.292000	-4.520000
	378.599655	1362.577145	19.290000	-4.520000
	378.699660	1362.565255	19.298000	-4.600000
	378.799666	1362.566444	19.274000	-4.490000
	378.899672	1362.566444	19.274000	-4.490000
	378.999678	1362.574767	19.306000	-4.430000
	379.101684	1362.573578	19.300000	-4.510000
	379.199689	1362.568822	19.298000	-4.540000
	379.299695	1362.567633	19.302000	-4.510000
	379.399700	1362.568822	19.330000	-4.490000
	379.499706	1362.568822	19.292000	-4.500000
	379.599712	1362.566444	19.314000	-4.520000
	379.699718	1362.564066	19.310000	-4.520000
	379.799723	1362.565255	19.310000	-4.490000
	379.899729	1362.562877	19.298000	-4.520000
	379.999735	1362.567633	19.314000	-4.460000
	380.102741	1362.564066	19.296000	-4.530000
	380.199746	1362.567633	19.306000	-4.470000
	380.299752	1362.570011	19.308000	-4.480000
	380.399757	1362.571201	19.304000	-4.490000
	380.499763	1362.573579	19.308000	-4.480000
	380.599769	1362.570012	19.280000	-4.530000
	380.699775	1362.570012	19.280000	-4.530000
	380.799780	1362.564066	19.308000	-4.550000
	380.899786	1362.559310	19.294000	-4.540000
	380.999792	1362.565256	19.304000	-4.450000
	381.099798	1362.562877	19.308000	-4.520000
	381.199803	1362.564067	19.330000	-4.490000
	381.299809	1362.562877	19.310000	-4.510000
	381.399815	1362.565256	19.302000	-4.480000
	381.499821	1362.564067	19.306000	-4.510000
	381.599826	1362.564067	19.316000	-4.500000
	381.713833	1362.567634	19.306000	-4.470000
	381.799838	1362.564067	19.298000	-4.530000
	381.899843	1362.565256	19.298000	-4.490000
	381.999849	1362.562878	19.318000	-4.520000
	382.100855	1362.559310	19.306000	-4.530000
	382.199861	1362.558121	19.288000	-4.510000
	382.299866	1362.560500	19.298000	-4.480000
	382.449875	1362.567634	19.296000	-4.440000
	382.549881	1362.568823	19.310000	-4.490000
	382.649886	1362.564067	19.296000	-4.540000
	382.749892	1362.566445	19.308000	-4.480000
	382.849898	1362.565256	19.296000	-4.510000
	382.949903	1362.561689	19.296000	-4.530000
	383.099912	1362.562878	19.322000	-4.490000
	383.199918	1362.562878	19.322000	-4.490000
	383.299923	1362.562878	19.292000	-4.500000
	383.399929	1362.568823	19.308000	-4.450000
	383.499935	1362.571202	19.314000	-4.480000
	383.599941	1362.577147	19.296000	-4.450000
	383.699946	1362.573580	19.302000	-4.530000
	383.799952	1362.573580	19.316000	-4.500000
	383.902958	1362.568824	19.304000	-4.540000
	384.002964	1362.568824	19.298000	-4.500000
	384.099969	1362.566446	19.298000	-4.520000
	384.199975	1362.564067	19.292000	-4.520000
	384.299981	1362.562878	19.310000	-4.510000
	384.399986	1362.561689	19.300000	-4.510000
	384.499992	1362.561689	19.302000	-4.500000
	384.606998	1362.565257	19.308000	-4.470000
	384.700004	1362.571202	19.314000	-4.450000
	384.800009	1362.574769	19.306000	-4.470000
	384.901015	1362.575958	19.306000	-4.490000
	385.000021	1362.574769	19.294000	-4.510000
	385.100027	1362.573580	19.302000	-4.510000
	385.200032	1362.571202	19.296000	-4.520000
	385.350041	1362.571202	19.296000	-4.520000
	385.450047	1362.573580	19.306000	-4.480000
	385.550052	1362.568824	19.316000	-4.540000
	385.650058	1362.562879	19.296000	-4.550000
	385.750063	1362.567635	19.302000	-4.460000
	385.850070	1362.561690	19.308000	-4.550000
	385.950075	1362.561690	19.314000	-4.500000
	386.050081	1362.562879	19.304000	-4.490000
	386.150086	1362.560501	19.300000	-4.520000
	386.250092	1362.556934	19.286000	-4.530000
	386.352098	1362.555745	19.308000	-4.510000
	386.450104	1362.565258	19.308000	-4.420000
	386.550109	1362.555745	19.298000	-4.580000
	386.650115	1362.561691	19.310000	-4.450000
	386.750121	1362.565258	19.302000	-4.470000
	386.855127	1362.560502	19.294000	-4.540000
	386.949132	1362.560502	19.300000	-4.500000
	387.049138	1362.560502	19.300000	-4.500000
	387.149144	1362.565258	19.310000	-4.460000
	387.250149	1362.559313	19.284000	-4.550000
	387.349155	1362.564069	19.308000	-4.460000
	387.449161	1362.562880	19.302000	-4.510000
	387.549167	1362.561691	19.296000	-4.510000
	387.649172	1362.561691	19.302000	-4.500000
	387.749178	1362.562880	19.314000	-4.490000
	387.849184	1362.558124	19.290000	-4.540000
	387.949189	1362.564069	19.310000	-4.450000
	388.049195	1362.568826	19.310000	-4.460000
	388.149201	1362.567637	19.304000	-4.510000
	388.259207	1362.561692	19.308000	-4.550000
	388.349212	1362.561692	19.308000	-4.550000
	388.449218	1362.559313	19.288000	-4.520000
	388.552224	1362.567637	19.316000	-4.430000
	388.649230	1362.565259	19.282000	-4.520000
	388.749235	1362.567637	19.318000	-4.480000
	388.849241	1362.573583	19.322000	-4.450000
	388.949246	1362.575961	19.282000	-4.480000
	389.049253	1362.571205	19.296000	-4.540000
	389.151258	1362.562881	19.294000	-4.570000
	389.249264	1362.554558	19.312000	-4.570000
	389.349269	1362.554558	19.312000	-4.570000
	389.449275	1362.553369	19.300000	-4.510000
	389.549281	1362.559314	19.310000	-4.450000
	389.649287	1362.561693	19.302000	-4.480000
	389.749292	1362.564071	19.306000	-4.480000
	389.849298	1362.567638	19.312000	-4.470000
	389.949304	1362.567638	19.290000	-4.500000
	390.049310	1362.573583	19.292000	-4.450000
	390.159316	1362.571205	19.322000	-4.520000
	390.249321	1362.571205	19.292000	-4.500000
	390.349327	1362.571205	19.292000	-4.500000
	390.449332	1362.575962	19.306000	-4.460000
	390.549338	1362.568827	19.290000	-4.560000
	390.699347	1362.568827	19.322000	-4.500000
	390.799352	1362.570017	19.304000	-4.490000
	390.899358	1362.566449	19.322000	-4.530000
	391.002364	1362.567638	19.296000	-4.490000
	391.149373	1362.562882	19.312000	-4.540000
	391.250378	1362.567639	19.286000	-4.460000
	391.349384	1362.565260	19.312000	-4.520000
	391.449389	1362.558126	19.310000	-4.560000
	391.549395	1362.558126	19.294000	-4.500000
	391.699404	1362.554559	19.290000	-4.530000
	391.799409	1362.552181	19.302000	-4.520000
	391.899415	1362.552181	19.298000	-4.500000
	391.999421	1362.548614	19.290000	-4.530000
	392.149430	1362.553370	19.290000	-4.460000
	392.249435	1362.568829	19.286000	-4.370000
	392.349441	1362.570018	19.312000	-4.490000
	392.451447	1362.570018	19.312000	-4.490000
	392.599455	1362.565262	19.322000	-4.540000
	392.699461	1362.561695	19.308000	-4.510000
	392.799467	1362.561695	19.308000	-4.510000
	392.899473	1362.570018	19.314000	-4.430000
	392.999478	1362.573585	19.288000	-4.470000
	393.099484	1362.575964	19.320000	-4.480000
	393.199490	1362.574775	19.306000	-4.510000
	393.299495	1362.578342	19.282000	-4.470000
	393.399501	1362.579531	19.306000	-4.490000
	393.511508	1362.579531	19.324000	-4.500000
	393.599513	1362.579531	19.296000	-4.500000
	393.699518	1362.578342	19.302000	-4.510000
	393.799524	1362.577153	19.298000	-4.510000
	393.899530	1362.575964	19.304000	-4.510000
	394.049538	1362.589044	19.304000	-4.390000
	394.149544	1362.584288	19.276000	-4.540000
	394.249550	1362.586666	19.316000	-4.480000
	394.349555	1362.583099	19.314000	-4.530000
	394.499564	1362.579532	19.296000	-4.530000
	394.599570	1362.577154	19.296000	-4.520000
	394.699575	1362.581910	19.302000	-4.460000
	394.799581	1362.585477	19.312000	-4.470000
	394.899587	1362.585477	19.288000	-4.500000
	395.049595	1362.589044	19.284000	-4.470000
	395.149601	1362.587855	19.290000	-4.510000
	395.249607	1362.581910	19.290000	-4.550000
	395.349613	1362.585477	19.310000	-4.470000
	395.499621	1362.580721	19.304000	-4.540000
	395.599627	1362.580721	19.292000	-4.500000
	395.699633	1362.574776	19.284000	-4.550000
	395.799638	1362.574776	19.332000	-4.500000
	395.949647	1362.575965	19.292000	-4.490000
	396.049653	1362.573587	19.308000	-4.520000
	396.149659	1362.571209	19.294000	-4.520000
	396.249664	1362.571209	19.294000	-4.520000
	396.400673	1362.579532	19.326000	-4.430000
	396.499679	1362.578343	19.300000	-4.510000
	396.599684	1362.580722	19.308000	-4.480000
	396.699690	1362.586667	19.300000	-4.450000
	396.799695	1362.586667	19.286000	-4.500000
	396.899702	1362.580722	19.304000	-4.550000
	396.999707	1362.580722	19.306000	-4.500000
	397.099713	1362.574777	19.296000	-4.550000
	397.199718	1362.579533	19.298000	-4.460000
	397.299724	1362.579533	19.304000	-4.500000
	397.399730	1362.575966	19.298000	-4.530000
	397.499736	1362.577155	19.296000	-4.490000
	397.599741	1362.574777	19.304000	-4.520000
	397.649745	1362.574777	19.304000	-4.500000
	397.799753	1362.579533	19.308000	-4.460000
	397.899759	1362.577155	19.302000	-4.520000
	397.999764	1362.579533	19.296000	-4.480000
	398.099770	1362.581911	19.324000	-4.480000
	398.199776	1362.581911	19.324000	-4.480000
	398.299781	1362.583100	19.296000	-4.490000
	398.399787	1362.586668	19.308000	-4.470000
	398.499793	1362.590235	19.298000	-4.470000
	398.599799	1362.594991	19.300000	-4.460000
	398.699804	1362.596180	19.290000	-4.490000
	398.799810	1362.597370	19.288000	-4.490000
	398.899816	1362.593802	19.308000	-4.530000
	398.999822	1362.594991	19.324000	-4.490000
	399.099827	1362.602126	19.296000	-4.440000
	399.199833	1362.605693	19.296000	-4.470000
	399.299839	1362.599748	19.282000	-4.550000
	399.399844	1362.597370	19.306000	-4.520000
	399.507851	1362.597370	19.300000	-4.500000
	399.599856	1362.593803	19.314000	-4.530000
	399.699862	1362.599748	19.304000	-4.450000
	399.799867	1362.596181	19.314000	-4.530000
	399.899873	1362.596181	19.314000	-4.530000
	399.999879	1362.598559	19.288000	-4.480000
	400.099885	1362.596181	19.292000	-4.520000
	400.199890	1362.589047	19.298000	-4.560000
	400.299896	1362.583101	19.304000	-4.550000
	400.399901	1362.584291	19.298000	-4.490000
	400.499907	1362.583101	19.308000	-4.510000
	400.599913	1362.583101	19.296000	-4.500000
	400.699919	1362.584291	19.306000	-4.490000
	400.807925	1362.591425	19.308000	-4.440000
	400.909931	1362.586669	19.296000	-4.540000
	400.999936	1362.589047	19.284000	-4.480000
	401.103942	1362.587858	19.312000	-4.510000
	401.199947	1362.587858	19.288000	-4.500000
	401.299953	1362.584291	19.308000	-4.530000
	401.399959	1362.581913	19.310000	-4.520000
	401.499965	1362.585480	19.296000	-4.470000
	401.599970	1362.585480	19.296000	-4.470000
	401.699976	1362.584291	19.308000	-4.510000
	401.799982	1362.580724	19.306000	-4.530000
	401.899987	1362.574778	19.290000	-4.550000
	401.999993	1362.580724	19.310000	-4.450000
	402.099999	1362.578346	19.298000	-4.520000
	402.207005	1362.578346	19.302000	-4.500000
	402.350013	1362.587859	19.316000	-4.420000
	402.457019	1362.584292	19.304000	-4.530000
	402.550025	1362.578346	19.298000	-4.550000
	402.650030	1362.581914	19.300000	-4.470000
	402.750036	1362.587859	19.314000	-4.450000
	402.850042	1362.586670	19.310000	-4.510000
	402.950047	1362.586670	19.322000	-4.500000
	403.053053	1362.585481	19.298000	-4.510000
	403.150059	1362.587859	19.306000	-4.480000
	403.250064	1362.587859	19.304000	-4.500000
	403.350070	1362.590237	19.298000	-4.480000
	403.450076	1362.589048	19.302000	-4.510000
	403.550082	1362.587859	19.292000	-4.510000
	403.656088	1362.591426	19.316000	-4.470000
	403.750093	1362.594994	19.288000	-4.470000
	403.850099	1362.583103	19.278000	-4.600000
	404.000107	1362.583103	19.302000	-4.500000
	404.100113	1362.583103	19.302000	-4.500000
	404.200119	1362.579536	19.322000	-4.530000
	404.300125	1362.581914	19.300000	-4.480000
	404.400130	1362.589049	19.304000	-4.440000
	404.499136	1362.591427	19.308000	-4.480000
	404.599142	1362.586671	19.288000	-4.540000
	404.699148	1362.584293	19.304000	-4.520000
	404.799153	1362.587860	19.298000	-4.470000
	404.899159	1362.584293	19.282000	-4.530000
	404.999165	1362.585482	19.332000	-4.490000
	405.099170	1362.587860	19.294000	-4.480000
	405.205176	1362.591427	19.294000	-4.470000
	405.299182	1362.587860	19.302000	-4.530000
	405.399188	1362.586671	19.308000	-4.510000
	405.499193	1362.587860	19.304000	-4.490000
	405.599199	1362.578348	19.306000	-4.580000
	405.699205	1362.578348	19.292000	-4.500000
	405.802211	1362.577159	19.310000	-4.510000
	405.899216	1362.571214	19.304000	-4.550000
	406.049225	1362.571214	19.302000	-4.500000
	406.149230	1362.574781	19.300000	-4.470000
	406.249236	1362.574781	19.290000	-4.500000
	406.349242	1362.572403	19.316000	-4.520000
	406.449248	1362.573592	19.294000	-4.490000
	406.549253	1362.573592	19.294000	-4.490000
	406.657259	1362.577159	19.308000	-4.470000
	406.759265	1362.574781	19.298000	-4.520000
	406.849270	1362.578348	19.294000	-4.470000
	406.949276	1362.579537	19.286000	-4.490000
	407.049282	1362.584294	19.302000	-4.460000
	407.149288	1362.579537	19.310000	-4.540000
	407.249293	1362.578348	19.284000	-4.510000
	407.349299	1362.587861	19.312000	-4.420000
	407.449305	1362.589050	19.312000	-4.490000
	407.553311	1362.590239	19.294000	-4.490000
	407.649316	1362.598563	19.298000	-4.430000
	407.749322	1362.594996	19.288000	-4.530000
	407.849328	1362.599752	19.298000	-4.460000
	407.956334	1362.599752	19.298000	-4.500000
	408.060340	1362.600942	19.274000	-4.490000
	408.159346	1362.596185	19.316000	-4.540000
	408.249351	1362.593807	19.290000	-4.520000
	408.399359	1362.596185	19.298000	-4.480000
	408.499365	1362.596185	19.298000	-4.480000
	408.599370	1362.599753	19.288000	-4.470000
	408.699376	1362.594996	19.312000	-4.540000
	408.799382	1362.600942	19.294000	-4.450000
	408.899388	1362.597375	19.316000	-4.530000
	408.999393	1362.602131	19.304000	-4.460000
	409.099399	1362.600942	19.318000	-4.510000
	409.199405	1362.604509	19.298000	-4.470000
	409.299411	1362.604509	19.294000	-4.500000
	409.399416	1362.603320	19.302000	-4.510000
	409.499422	1362.597375	19.306000	-4.550000
	409.599428	1362.592619	19.310000	-4.540000
	409.699433	1362.589051	19.296000	-4.530000
	409.801439	1362.589051	19.292000	-4.500000
	409.899445	1362.589051	19.296000	-4.500000
	409.999451	1362.586673	19.292000	-4.520000
	410.099456	1362.590241	19.302000	-4.470000
	410.199462	1362.591430	19.306000	-4.490000
	410.299468	1362.589052	19.290000	-4.520000
	410.407474	1362.589052	19.290000	-4.520000
	410.502480	1362.590241	19.290000	-4.490000
	410.600485	1362.591430	19.316000	-4.490000
	410.699491	1362.589052	19.300000	-4.520000
	410.799496	1362.586673	19.308000	-4.520000
	410.899502	1362.590241	19.300000	-4.470000
	410.999508	1362.596186	19.300000	-4.450000
	411.099514	1362.594997	19.300000	-4.510000
	411.199519	1362.599754	19.300000	-4.460000
	411.299525	1362.602132	19.302000	-4.480000
	411.399531	1362.599754	19.304000	-4.520000
	411.505537	1362.591430	19.280000	-4.570000
	411.599542	1362.586674	19.310000	-4.540000
	411.699548	1362.585485	19.306000	-4.510000
	411.799553	1362.592620	19.292000	-4.440000
	411.899559	1362.594998	19.312000	-4.480000
	412.005565	1362.591431	19.300000	-4.530000
	412.115571	1362.590241	19.308000	-4.510000
	412.199576	1362.590241	19.308000	-4.510000
	412.299582	1362.590241	19.304000	-4.500000
	412.399588	1362.593809	19.306000	-4.470000
	412.499594	1362.591431	19.306000	-4.520000
	412.599599	1362.586674	19.296000	-4.540000
	412.699605	1362.581918	19.296000	-4.540000
	412.799611	1362.583107	19.298000	-4.490000
	412.899617	1362.584296	19.302000	-4.490000
	413.000622	1362.587864	19.300000	-4.470000
	413.099628	1362.584296	19.318000	-4.530000
	413.199634	1362.585485	19.310000	-4.490000
	413.299639	1362.583107	19.328000	-4.520000
	413.399645	1362.583107	19.312000	-4.500000
	413.499651	1362.587864	19.308000	-4.460000
	413.599657	1362.584297	19.306000	-4.530000
	413.699662	1362.580729	19.310000	-4.530000
	413.799668	1362.584297	19.298000	-4.470000
	413.900674	1362.584297	19.298000	-4.470000
	414.049682	1362.583108	19.306000	-4.510000
	414.149688	1362.581918	19.296000	-4.510000
	414.249694	1362.574784	19.284000	-4.560000
	414.349699	1362.578351	19.300000	-4.470000
	414.449705	1362.587864	19.300000	-4.420000
	414.551711	1362.586675	19.292000	-4.510000
	414.651717	1362.583108	19.304000	-4.530000
	414.749722	1362.584297	19.308000	-4.490000
	414.850728	1362.585486	19.296000	-4.490000
	414.899731	1362.587864	19.292000	-4.480000
	415.049739	1362.589054	19.290000	-4.490000
	415.149745	1362.587864	19.298000	-4.510000
	415.249751	1362.591432	19.316000	-4.470000
	415.349757	1362.587865	19.300000	-4.530000
	415.499765	1362.586675	19.294000	-4.510000
	415.599771	1362.587865	19.296000	-4.490000
	415.699777	1362.587865	19.300000	-4.500000
	415.799782	1362.586675	19.288000	-4.510000
	415.949791	1362.587865	19.306000	-4.490000
	416.049797	1362.586675	19.318000	-4.510000
	416.149802	1362.585486	19.320000	-4.510000
	416.249808	1362.587865	19.280000	-4.480000
	416.351814	1362.589054	19.306000	-4.490000
	416.499823	1362.589054	19.300000	-4.500000
	416.599828	1362.581919	19.284000	-4.560000
	416.699834	1362.589054	19.300000	-4.440000
	416.799839	1362.583109	19.290000	-4.550000
	416.949848	1362.587865	19.306000	-4.460000
	417.049854	1362.589054	19.300000	-4.490000
	417.149859	1362.599756	19.298000	-4.410000
	417.249866	1362.600945	19.306000	-4.490000
	417.399874	1362.600945	19.306000	-4.490000
	417.499880	1362.597378	19.302000	-4.530000
	417.599885	1362.597378	19.298000	-4.500000
	417.699891	1362.604513	19.304000	-4.440000
	417.799897	1362.600946	19.298000	-4.530000
	417.899902	1362.606891	19.286000	-4.450000
	417.999908	1362.602135	19.290000	-4.540000
	418.099914	1362.602135	19.304000	-4.500000
	418.206920	1362.598568	19.300000	-4.530000
	418.249922	1362.597379	19.298000	-4.510000
	418.399931	1362.603324	19.310000	-4.450000
	418.499937	1362.602135	19.292000	-4.510000
	418.599943	1362.599757	19.308000	-4.520000
	418.699948	1362.600946	19.322000	-4.490000
	418.849957	1362.603324	19.294000	-4.480000
	418.949963	1362.596190	19.298000	-4.560000
	419.049968	1362.595001	19.302000	-4.510000
	419.149974	1362.598568	19.300000	-4.470000
	419.299983	1362.591434	19.300000	-4.560000
	419.399988	1362.593812	19.294000	-4.480000
	419.499994	1362.599758	19.318000	-4.450000
	419.600000	1362.599758	19.310000	-4.500000
	419.750008	1362.600947	19.316000	-4.490000
	419.850014	1362.602136	19.306000	-4.490000
	419.950020	1362.602136	19.290000	-4.500000
	420.050025	1362.597379	19.268000	-4.540000
	420.150031	1362.596190	19.294000	-4.510000
	420.300040	1362.590245	19.314000	-4.550000
	420.400045	1362.591434	19.290000	-4.490000
	420.501051	1362.592623	19.298000	-4.490000
	420.600057	1362.589056	19.306000	-4.530000
	420.750065	1362.587867	19.302000	-4.510000
	420.850071	1362.593812	19.302000	-4.450000
	420.950077	1362.596191	19.318000	-4.480000
	421.050083	1362.595002	19.300000	-4.510000
	421.200091	1362.595002	19.300000	-4.510000
	421.300097	1362.597380	19.320000	-4.480000
	421.400103	1362.597380	19.326000	-4.500000
	421.500108	1362.598569	19.322000	-4.490000
	421.600114	1362.598569	19.308000	-4.500000
	421.700120	1362.598569	19.292000	-4.500000
	421.800126	1362.599758	19.316000	-4.490000
	421.899131	1362.600947	19.302000	-4.490000
	421.999137	1362.599758	19.308000	-4.510000
	422.099143	1362.592624	19.308000	-4.560000
	422.199148	1362.593813	19.320000	-4.490000
	422.299154	1362.598569	19.308000	-4.460000
	422.399160	1362.596191	19.316000	-4.520000
	422.499166	1362.595002	19.302000	-4.510000
	422.601171	1362.590246	19.312000	-4.540000
	422.699177	1362.585489	19.282000	-4.540000
	422.799183	1362.589057	19.310000	-4.470000
	422.899189	1362.589057	19.310000	-4.470000
	422.999194	1362.591435	19.288000	-4.480000
	423.099200	1362.585490	19.280000	-4.550000
	423.199205	1362.584300	19.296000	-4.510000
	423.299212	1362.590246	19.316000	-4.450000
	423.399217	1362.585490	19.324000	-4.540000
	423.499223	1362.587868	19.304000	-4.480000
	423.599228	1362.591435	19.296000	-4.470000
	423.699234	1362.593813	19.296000	-4.480000
	423.799240	1362.595002	19.298000	-4.490000
	423.899246	1362.592624	19.316000	-4.520000
	423.999251	1362.599759	19.296000	-4.440000
	424.099257	1362.599759	19.316000	-4.500000
	424.204263	1362.597381	19.314000	-4.520000
	424.299269	1362.591436	19.310000	-4.550000
	424.399274	1362.586679	19.306000	-4.540000
	424.499280	1362.590247	19.290000	-4.470000
	424.599286	1362.591436	19.306000	-4.490000
	424.699291	1362.591436	19.306000	-4.490000
	424.799297	1362.591436	19.300000	-4.500000
	424.899303	1362.590247	19.290000	-4.510000
	424.999309	1362.589058	19.326000	-4.510000
	425.099314	1362.590247	19.288000	-4.490000
	425.199320	1362.587868	19.294000	-4.520000
	425.299325	1362.587868	19.306000	-4.500000
	425.399332	1362.586679	19.302000	-4.510000
	425.499337	1362.596192	19.282000	-4.420000
	425.599343	1362.593814	19.318000	-4.520000
	425.702349	1362.595003	19.314000	-4.490000
	425.799354	1362.597381	19.296000	-4.480000
	425.899360	1362.589058	19.310000	-4.570000
	425.999366	1362.596193	19.296000	-4.440000
	426.099371	1362.596193	19.316000	-4.500000
	426.199377	1362.596193	19.306000	-4.500000
	426.299383	1362.593815	19.294000	-4.520000
	426.399389	1362.595004	19.316000	-4.490000
	426.549397	1362.602138	19.306000	-4.440000
	426.649403	1362.602138	19.306000	-4.440000
	426.749409	1362.597382	19.284000	-4.540000
	426.849414	1362.597382	19.280000	-4.500000
	426.949420	1362.587870	19.324000	-4.580000
	427.049426	1362.585492	19.308000	-4.520000
	427.149432	1362.589059	19.280000	-4.470000
	427.249437	1362.589059	19.296000	-4.500000
	427.349443	1362.589059	19.308000	-4.500000
	427.449449	1362.592626	19.310000	-4.470000
	427.549454	1362.589059	19.306000	-4.530000
	427.649460	1362.587870	19.280000	-4.510000
	427.749466	1362.590248	19.296000	-4.480000
	427.849472	1362.596194	19.310000	-4.450000
	427.949477	1362.596194	19.304000	-4.500000
	428.050483	1362.603328	19.318000	-4.440000
	428.149489	1362.600950	19.290000	-4.520000
	428.249495	1362.600950	19.290000	-4.520000
	428.350500	1362.599761	19.300000	-4.510000
	428.449506	1362.595005	19.328000	-4.540000
	428.549511	1362.593816	19.294000	-4.510000
	428.649518	1362.599761	19.292000	-4.450000
	428.749523	1362.598572	19.304000	-4.510000
	428.849529	1362.597383	19.308000	-4.510000
	428.949534	1362.599761	19.284000	-4.480000
	429.049540	1362.599761	19.304000	-4.500000
	429.149546	1362.597383	19.308000	-4.520000
	429.249552	1362.602140	19.306000	-4.460000
	429.349557	1362.596194	19.300000	-4.550000
	429.449563	1362.597383	19.296000	-4.490000
	429.549569	1362.598572	19.302000	-4.490000
	429.651575	1362.598572	19.316000	-4.500000
	429.749580	1362.598572	19.302000	-4.500000
	429.849586	1362.600951	19.288000	-4.480000
	429.949592	1362.598573	19.292000	-4.520000
	430.049597	1362.598573	19.292000	-4.520000
	430.149603	1362.596194	19.312000	-4.520000
	430.249609	1362.597383	19.312000	-4.490000
	430.349615	1362.602140	19.292000	-4.460000
	430.449620	1362.599762	19.310000	-4.520000
	430.549626	1362.600951	19.316000	-4.490000
	430.649632	1362.602140	19.294000	-4.490000
	430.749638	1362.603329	19.272000	-4.490000
	430.849643	1362.602140	19.288000	-4.510000
	430.949649	1362.602140	19.296000	-4.500000
	431.049654	1362.603329	19.320000	-4.490000
	431.149660	1362.603329	19.306000	-4.500000
	431.250666	1362.611653	19.288000	-4.430000
	431.349672	1362.617599	19.300000	-4.450000
	431.449677	1362.616409	19.302000	-4.510000
	431.549683	1362.608086	19.296000	-4.570000
	431.649689	1362.614032	19.286000	-4.450000
	431.749695	1362.611653	19.302000	-4.520000
	431.849700	1362.611653	19.302000	-4.520000
	431.949706	1362.612843	19.292000	-4.490000
	432.049712	1362.612843	19.294000	-4.500000
	432.149717	1362.612843	19.312000	-4.500000
	432.249723	1362.617599	19.288000	-4.460000
	432.349729	1362.618788	19.298000	-4.490000
	432.449735	1362.625923	19.304000	-4.440000
	432.549740	1362.625923	19.304000	-4.500000
	432.649746	1362.628301	19.294000	-4.480000
	432.749752	1362.622356	19.302000	-4.550000
	432.851758	1362.624734	19.300000	-4.480000
	432.949763	1362.624734	19.288000	-4.500000
	433.049769	1362.623545	19.296000	-4.510000
	433.149775	1362.623545	19.316000	-4.500000
	433.249781	1362.625923	19.272000	-4.480000
	433.349786	1362.623545	19.300000	-4.520000
	433.449792	1362.612843	19.294000	-4.590000
	433.549798	1362.612843	19.294000	-4.590000
	433.649803	1362.615222	19.304000	-4.480000
	433.749809	1362.617600	19.288000	-4.480000
	433.849815	1362.616411	19.312000	-4.510000
	433.949821	1362.609276	19.306000	-4.560000
	434.049826	1362.610465	19.290000	-4.490000
	434.149832	1362.612844	19.294000	-4.480000
	434.249838	1362.618789	19.298000	-4.450000
	434.349844	1362.619978	19.312000	-4.490000
	434.449849	1362.614033	19.328000	-4.550000
	434.554855	1362.606898	19.304000	-4.560000
	434.649860	1362.612844	19.300000	-4.450000
	434.749866	1362.621168	19.292000	-4.430000
	434.849872	1362.621168	19.298000	-4.500000
	434.949878	1362.619979	19.302000	-4.510000
	435.049883	1362.618790	19.320000	-4.510000
	435.149889	1362.617601	19.312000	-4.510000
	435.249895	1362.617601	19.312000	-4.510000
	435.349901	1362.615223	19.310000	-4.520000
	435.449906	1362.614033	19.288000	-4.510000
	435.549912	1362.617601	19.286000	-4.470000
	435.649918	1362.618790	19.310000	-4.490000
	435.749924	1362.616412	19.296000	-4.520000
	435.849929	1362.612844	19.280000	-4.530000
	435.949935	1362.610466	19.312000	-4.520000
	436.049941	1362.614034	19.300000	-4.470000
	436.150947	1362.614034	19.292000	-4.500000
	436.249952	1362.615223	19.298000	-4.490000
	436.349958	1362.612845	19.300000	-4.520000
	436.449964	1362.611655	19.322000	-4.510000
	436.549969	1362.611655	19.318000	-4.500000
	436.649975	1362.612845	19.280000	-4.490000
	436.749981	1362.612845	19.312000	-4.500000
	436.849987	1362.612845	19.312000	-4.500000
	436.949992	1362.614034	19.290000	-4.490000
	437.049998	1362.605710	19.280000	-4.570000
	437.150003	1362.602143	19.324000	-4.530000
	437.250010	1362.604521	19.308000	-4.480000
	437.350015	1362.606899	19.292000	-4.480000
	437.450021	1362.606899	19.312000	-4.500000
	437.550026	1362.615223	19.308000	-4.430000
	437.650032	1362.611656	19.308000	-4.530000
	437.750038	1362.610467	19.300000	-4.510000
	437.852044	1362.611656	19.292000	-4.490000
	437.950049	1362.609278	19.306000	-4.520000
	438.050055	1362.608089	19.318000	-4.510000
	438.150061	1362.605711	19.292000	-4.520000
	438.250066	1362.603332	19.314000	-4.520000
	438.350072	1362.599765	19.298000	-4.530000
	438.450078	1362.597387	19.288000	-4.520000
	438.550084	1362.597387	19.288000	-4.520000
	438.650089	1362.592631	19.304000	-4.540000
	438.750095	1362.596198	19.304000	-4.470000
	438.850101	1362.598576	19.306000	-4.480000
	438.950107	1362.599765	19.284000	-4.490000
	439.050112	1362.600954	19.310000	-4.490000
	439.150118	1362.605711	19.306000	-4.460000
	439.250124	1362.598577	19.302000	-4.560000
	439.352129	1362.603333	19.300000	-4.460000
	439.449135	1362.606900	19.294000	-4.470000
	439.549141	1362.609279	19.304000	-4.480000
	439.649147	1362.605711	19.308000	-4.530000
	439.755153	1362.605711	19.296000	-4.500000
	439.849158	1362.603333	19.310000	-4.520000
	439.949163	1362.609279	19.288000	-4.450000
	440.049170	1362.603333	19.302000	-4.550000
	440.149175	1362.606901	19.298000	-4.470000
	440.249181	1362.609279	19.304000	-4.480000
	440.399189	1362.606901	19.300000	-4.520000
	440.499195	1362.605712	19.290000	-4.510000
	440.599201	1362.604522	19.310000	-4.510000
	440.699206	1362.598577	19.310000	-4.550000
	440.799212	1362.599766	19.288000	-4.490000
	440.899218	1362.604523	19.304000	-4.460000
	441.049227	1362.602145	19.290000	-4.520000
	441.149232	1362.612847	19.312000	-4.410000
	441.249238	1362.611658	19.274000	-4.510000
	441.349244	1362.612847	19.308000	-4.490000
	441.449249	1362.617603	19.294000	-4.460000
	441.549255	1362.621171	19.316000	-4.470000
	441.649261	1362.615225	19.300000	-4.550000
	441.749267	1362.619982	19.310000	-4.460000
	441.899275	1362.612847	19.296000	-4.560000
	441.999281	1362.612847	19.300000	-4.500000
	442.099287	1362.612847	19.300000	-4.500000
	442.199292	1362.616415	19.292000	-4.470000
	442.299298	1362.618793	19.310000	-4.480000
	442.399304	1362.625928	19.284000	-4.440000
	442.499310	1362.622360	19.294000	-4.530000
	442.599315	1362.624739	19.306000	-4.480000
	442.699321	1362.627117	19.316000	-4.480000
	442.799327	1362.623550	19.304000	-4.530000
	442.899333	1362.622361	19.290000	-4.510000
	442.999338	1362.615226	19.312000	-4.560000
	443.099344	1362.617604	19.312000	-4.480000
	443.199349	1362.617604	19.288000	-4.500000
	443.299356	1362.616415	19.286000	-4.510000
	443.405361	1362.618793	19.322000	-4.480000
	443.499367	1362.619982	19.292000	-4.490000
	443.599372	1362.616415	19.292000	-4.530000
	443.699378	1362.622361	19.304000	-4.450000
	443.799384	1362.627117	19.280000	-4.460000
	443.899390	1362.627117	19.280000	-4.460000
	443.999395	1362.630685	19.286000	-4.470000
	444.099401	1362.631874	19.292000	-4.490000
	444.199407	1362.635441	19.292000	-4.470000
	444.299413	1362.634252	19.298000	-4.510000
	444.399418	1362.631874	19.290000	-4.520000
	444.499424	1362.631874	19.296000	-4.500000
	444.599430	1362.631874	19.290000	-4.500000
	444.699435	1362.639009	19.280000	-4.440000
	444.799441	1362.635442	19.312000	-4.530000
	444.899447	1362.635442	19.290000	-4.500000
	444.999453	1362.636631	19.296000	-4.490000
	445.104458	1362.636631	19.290000	-4.500000
	445.199464	1362.634252	19.268000	-4.520000
	445.299469	1362.631874	19.298000	-4.520000
	445.399476	1362.625929	19.286000	-4.550000
	445.499481	1362.631874	19.292000	-4.450000
	445.599487	1362.631874	19.292000	-4.450000
	445.699492	1362.637820	19.272000	-4.450000
	445.799498	1362.639009	19.280000	-4.490000
	445.899504	1362.636631	19.304000	-4.520000
	445.999510	1362.634253	19.302000	-4.520000
	446.099515	1362.627118	19.304000	-4.560000
	446.199521	1362.621173	19.296000	-4.550000
	446.299527	1362.612849	19.300000	-4.570000
	446.399533	1362.608093	19.292000	-4.540000
	446.499538	1362.612850	19.306000	-4.460000
	446.599544	1362.622363	19.304000	-4.420000
	446.705550	1362.627119	19.294000	-4.460000
	446.799555	1362.629497	19.312000	-4.480000
	446.906561	1362.623552	19.288000	-4.550000
	447.000567	1362.619985	19.310000	-4.530000
	447.099573	1362.615228	19.284000	-4.540000
	447.199578	1362.615228	19.284000	-4.540000
	447.299584	1362.612850	19.302000	-4.520000
	447.399590	1362.608094	19.284000	-4.540000
	447.499596	1362.609283	19.308000	-4.490000
	447.599601	1362.610472	19.304000	-4.490000
	447.699607	1362.612850	19.282000	-4.480000
	447.799613	1362.616418	19.308000	-4.470000
	447.899619	1362.614039	19.300000	-4.520000
	448.001624	1362.610472	19.302000	-4.530000
	448.099630	1362.611661	19.298000	-4.490000
	448.199636	1362.609283	19.284000	-4.520000
	448.299641	1362.615229	19.306000	-4.450000
	448.399647	1362.615229	19.306000	-4.500000
	448.499653	1362.612851	19.316000	-4.520000
	448.599658	1362.615229	19.296000	-4.480000
	448.699664	1362.616418	19.298000	-4.490000
	448.799670	1362.621174	19.314000	-4.460000
	448.899675	1362.622363	19.310000	-4.490000
	449.049684	1362.619985	19.290000	-4.520000
	449.149690	1362.619985	19.290000	-4.520000
	449.249696	1362.627120	19.316000	-4.440000
	449.349701	1362.619986	19.296000	-4.560000
	449.449707	1362.617607	19.288000	-4.520000
	449.549713	1362.616418	19.306000	-4.510000
	449.649718	1362.616418	19.294000	-4.500000
	449.749724	1362.615229	19.294000	-4.510000
	449.849730	1362.617607	19.300000	-4.480000
	449.949736	1362.621175	19.286000	-4.470000
	450.049741	1362.619986	19.306000	-4.510000
	450.149747	1362.622364	19.298000	-4.480000
	450.250753	1362.616419	19.302000	-4.550000
	450.349759	1362.611662	19.302000	-4.540000
	450.454764	1362.619986	19.314000	-4.430000
	450.549770	1362.621175	19.306000	-4.490000
	450.649776	1362.618797	19.282000	-4.520000
	450.749782	1362.617608	19.292000	-4.510000
	450.849787	1362.618797	19.286000	-4.490000
	450.949793	1362.624743	19.296000	-4.450000
	451.049798	1362.624743	19.296000	-4.450000
	451.149804	1362.622365	19.296000	-4.520000
	451.249810	1362.617608	19.288000	-4.540000
	451.349816	1362.623554	19.298000	-4.450000
	451.449821	1362.625932	19.286000	-4.480000
	451.549827	1362.625932	19.294000	-4.500000
	451.649833	1362.633067	19.294000	-4.440000
	451.749839	1362.642580	19.290000	-4.420000
	451.849844	1362.648526	19.294000	-4.450000
	451.949850	1362.642581	19.294000	-4.550000
	452.053856	1362.646148	19.292000	-4.470000
	452.149861	1362.647337	19.306000	-4.490000
	452.249867	1362.637824	19.304000	-4.580000
	452.349873	1362.639013	19.304000	-4.490000
	452.449879	1362.639013	19.266000	-4.500000
	452.549884	1362.640203	19.308000	-4.490000
	452.649890	1362.641392	19.286000	-4.490000
	452.749896	1362.643770	19.290000	-4.480000
	452.849902	1362.643770	19.290000	-4.480000
	452.949907	1362.642581	19.286000	-4.510000
	453.049913	1362.648527	19.302000	-4.450000
	453.149919	1362.647338	19.290000	-4.510000
	453.249924	1362.646148	19.278000	-4.510000
	453.349930	1362.704430	19.324000	-4.010000
	453.449936	1362.702051	19.278000	-4.520000
	453.549942	1362.698484	19.266000	-4.530000
	453.653947	1362.697295	19.286000	-4.510000
	453.749953	1362.688971	19.280000	-4.570000
	453.849959	1362.684214	19.294000	-4.540000
	453.949965	1362.677079	19.296000	-4.560000
	454.049970	1362.666377	19.302000	-4.590000
	454.149976	1362.659243	19.286000	-4.560000
	454.249981	1362.660432	19.306000	-4.490000
	454.349988	1362.653297	19.288000	-4.560000
	454.499996	1362.650919	19.300000	-4.520000
	454.600002	1362.647351	19.296000	-4.530000
	454.700007	1362.648541	19.298000	-4.490000
	454.800013	1362.648541	19.298000	-4.490000
	454.900019	1362.644973	19.312000	-4.530000
	455.000024	1362.639028	19.286000	-4.550000
	455.100030	1362.639028	19.284000	-4.500000
	455.200036	1362.637839	19.308000	-4.510000
	455.300042	1362.642595	19.296000	-4.460000
	455.400047	1362.650919	19.296000	-4.430000
	455.500053	1362.648541	19.302000	-4.520000
	455.600059	1362.643785	19.296000	-4.540000
	455.700065	1362.639028	19.296000	-4.540000
	455.800070	1362.639028	19.314000	-4.500000
	455.900076	1362.627137	19.292000	-4.600000
	456.000082	1362.617625	19.262000	-4.580000
	456.104088	1362.623571	19.300000	-4.450000
	456.200093	1362.620003	19.296000	-4.530000
	456.300099	1362.625949	19.300000	-4.450000
