LabVIEW Measurement	
Writer_Version	2
Reader_Version	2
Separator	Tab
Decimal_Separator	.
Multi_Headings	No
X_Columns	No
Time_Pref	Relative
Operator	Herve
Date	2023/05/31
Time	11:07:16.8939862251281738281
***End_of_Header***	
	
Channels	4				
Samples	3547	3547	3547	3547	
Date	1904/01/01	1904/01/01	1904/01/01	1904/01/01	
Time	09:00:00	09:00:00	09:00:00	09:00:00	
Y_Unit_Label	s	Hz	mV	°	
X_Dimension	Time	Time	Time	Time	
X0	0.0000000000000000E+0	0.0000000000000000E+0	0.0000000000000000E+0	0.0000000000000000E+0	
Delta_X	1.000000	1.000000	1.000000	1.000000	
***End_of_Header***					
X_Value	Time	Res.Frequency	Amplitude	Phase	Comment
	0.050003	1447.938641	27.126000	-5.840000
	0.150009	1447.934851	27.138000	-5.830000
	0.250014	1447.926006	27.148000	-5.870000
	0.350020	1447.923479	27.148000	-5.820000
	0.450026	1447.917161	27.158000	-5.850000
	0.550032	1447.918425	27.164000	-5.790000
	0.650037	1447.914634	27.164000	-5.830000
	0.750043	1447.910844	27.180000	-5.830000
	0.850049	1447.918425	27.160000	-5.740000
	0.950054	1447.923479	27.154000	-5.760000
	1.050060	1447.931061	27.178000	-5.740000
	1.100063	1447.934851	27.136000	-5.770000
	1.250072	1447.934851	27.136000	-5.770000
	1.350077	1447.942433	27.132000	-5.740000
	1.450083	1447.942433	27.140000	-5.800000
	1.550089	1447.944960	27.140000	-5.780000
	1.650095	1447.938643	27.126000	-5.850000
	1.750100	1447.941170	27.170000	-5.780000
	1.850106	1447.932325	27.182000	-5.870000
	1.950111	1447.928534	27.160000	-5.830000
	2.050117	1447.922217	27.166000	-5.850000
	2.150123	1447.914636	27.160000	-5.860000
	2.250129	1447.914636	27.176000	-5.800000
	2.350134	1447.914636	27.190000	-5.800000
	2.450140	1447.920953	27.214000	-5.750000
	2.550146	1447.927271	27.206000	-5.750000
	2.650152	1447.927271	27.206000	-5.750000
	2.750157	1447.931062	27.158000	-5.770000
	2.850163	1447.939907	27.154000	-5.730000
	2.950169	1447.950016	27.138000	-5.720000
	3.050175	1447.953807	27.170000	-5.770000
	3.150180	1447.951280	27.158000	-5.820000
	3.250186	1447.953807	27.146000	-5.780000
	3.350192	1447.946226	27.146000	-5.860000
	3.450197	1447.937381	27.140000	-5.870000
	3.550203	1447.932327	27.158000	-5.840000
	3.650209	1447.928536	27.160000	-5.830000
	3.750215	1447.924745	27.180000	-5.830000
	3.850220	1447.923482	27.166000	-5.810000
	3.950226	1447.931063	27.198000	-5.740000
	4.050232	1447.938645	27.182000	-5.740000
	4.150238	1447.947490	27.154000	-5.730000
	4.250243	1447.947490	27.154000	-5.730000
	4.350249	1447.951281	27.166000	-5.770000
	4.450254	1447.950017	27.132000	-5.810000
	4.550260	1447.944963	27.138000	-5.840000
	4.650266	1447.939909	27.160000	-5.840000
	4.750272	1447.929801	27.148000	-5.880000
	4.850277	1447.927274	27.170000	-5.820000
	4.950283	1447.926010	27.158000	-5.810000
	5.050289	1447.932328	27.154000	-5.750000
	5.150295	1447.934855	27.180000	-5.780000
	5.250300	1447.932328	27.158000	-5.820000
	5.350306	1447.946228	27.182000	-5.690000
	5.450312	1447.955073	27.148000	-5.730000
	5.550317	1447.957600	27.146000	-5.780000
	5.650323	1447.955073	27.148000	-5.820000
	5.750329	1447.944965	27.130000	-5.880000
	5.850335	1447.944965	27.130000	-5.880000
	5.950340	1447.938647	27.178000	-5.850000
	6.050346	1447.926012	27.166000	-5.900000
	6.150352	1447.927276	27.198000	-5.790000
	6.250358	1447.929803	27.180000	-5.780000
	6.350363	1447.931066	27.180000	-5.790000
	6.450369	1447.932330	27.154000	-5.790000
	6.550375	1447.934857	27.146000	-5.780000
	6.650381	1447.937384	27.160000	-5.780000
	6.750386	1447.938648	27.166000	-5.790000
	6.850392	1447.937384	27.156000	-5.810000
	6.950397	1447.926013	27.142000	-5.890000
	7.050403	1447.923486	27.164000	-5.820000
	7.150409	1447.917168	27.182000	-5.850000
	7.250415	1447.927277	27.180000	-5.720000
	7.350420	1447.923486	27.156000	-5.830000
	7.450426	1447.923486	27.156000	-5.830000
	7.550432	1447.932331	27.146000	-5.730000
	7.650438	1447.932331	27.152000	-5.800000
	7.750443	1447.938649	27.136000	-5.750000
	7.850449	1447.931068	27.140000	-5.860000
	7.950455	1447.926014	27.162000	-5.840000
	8.050460	1447.920960	27.184000	-5.840000
	8.150466	1447.924750	27.184000	-5.770000
	8.250472	1447.929805	27.182000	-5.760000
	8.350478	1447.934859	27.168000	-5.760000
	8.450483	1447.936123	27.156000	-5.790000
	8.550489	1447.934859	27.146000	-5.810000
	8.650495	1447.933595	27.120000	-5.810000
	8.750501	1447.929805	27.164000	-5.830000
	8.850506	1447.923487	27.148000	-5.850000
	8.950512	1447.928541	27.148000	-5.760000
	9.050518	1447.926014	27.204000	-5.820000
	9.149523	1447.926014	27.204000	-5.820000
	9.249529	1447.927278	27.180000	-5.790000
	9.349535	1447.934859	27.162000	-5.740000
	9.449541	1447.943705	27.164000	-5.730000
	9.549546	1447.939914	27.142000	-5.830000
	9.649552	1447.931069	27.168000	-5.870000
	9.749557	1447.929806	27.182000	-5.810000
	9.849564	1447.919698	27.178000	-5.880000
	9.949569	1447.917171	27.188000	-5.820000
	10.049575	1447.919698	27.194000	-5.780000
	10.149580	1447.923488	27.160000	-5.770000
	10.249586	1447.932334	27.162000	-5.730000
	10.349592	1447.933597	27.138000	-5.790000
	10.449598	1447.928543	27.130000	-5.840000
	10.549603	1447.928543	27.164000	-5.800000
	10.649609	1447.918435	27.182000	-5.880000
	10.749615	1447.918435	27.182000	-5.880000
	10.849621	1447.920962	27.162000	-5.780000
	10.949626	1447.926016	27.164000	-5.760000
	11.049632	1447.928543	27.156000	-5.780000
	11.149638	1447.932334	27.128000	-5.770000
	11.249643	1447.939916	27.148000	-5.740000
	11.349649	1447.934861	27.166000	-5.840000
	11.449655	1447.926017	27.170000	-5.870000
	11.549661	1447.923490	27.180000	-5.820000
	11.649666	1447.928544	27.176000	-5.760000
	11.749672	1447.928544	27.176000	-5.800000
	11.849678	1447.924753	27.152000	-5.830000
	11.949684	1447.936126	27.130000	-5.710000
	12.049689	1447.939917	27.156000	-5.770000
	12.149695	1447.939917	27.212000	-5.800000
	12.249701	1447.931072	27.120000	-5.870000
	12.349706	1447.926018	27.210000	-5.840000
	12.449712	1447.926018	27.210000	-5.840000
	12.549718	1447.919700	27.172000	-5.850000
	12.649724	1447.919700	27.160000	-5.800000
	12.749729	1447.917173	27.158000	-5.820000
	12.849735	1447.924754	27.164000	-5.740000
	12.949741	1447.931072	27.150000	-5.750000
	13.049747	1447.918437	27.146000	-5.900000
	13.149752	1447.915910	27.150000	-5.820000
	13.249758	1447.912120	27.180000	-5.830000
	13.349763	1447.922228	27.184000	-5.720000
	13.449769	1447.926019	27.174000	-5.770000
	13.549775	1447.941183	27.104000	-5.680000
	13.649781	1447.944973	27.148000	-5.770000
	13.749786	1447.941183	27.150000	-5.830000
	13.849792	1447.941183	27.160000	-5.800000
	13.949798	1447.932338	27.160000	-5.870000
	14.049804	1447.932338	27.160000	-5.870000
	14.149809	1447.927284	27.178000	-5.840000
	14.249815	1447.933602	27.180000	-5.750000
	14.349821	1447.931075	27.156000	-5.820000
	14.449827	1447.937393	27.160000	-5.750000
	14.549832	1447.938656	27.162000	-5.790000
	14.649838	1447.932338	27.126000	-5.850000
	14.749844	1447.932338	27.158000	-5.800000
	14.849849	1447.933602	27.170000	-5.790000
	14.949855	1447.936129	27.180000	-5.780000
	15.049861	1447.934866	27.152000	-5.810000
	15.149867	1447.937393	27.144000	-5.780000
	15.249872	1447.936129	27.122000	-5.810000
	15.349878	1447.926021	27.152000	-5.880000
	15.449884	1447.919703	27.176000	-5.850000
	15.549890	1447.922230	27.172000	-5.780000
	15.649895	1447.922230	27.172000	-5.780000
	15.749901	1447.932339	27.168000	-5.720000
	15.849906	1447.932339	27.142000	-5.800000
	15.949913	1447.937394	27.168000	-5.760000
	16.049918	1447.929812	27.164000	-5.860000
	16.149924	1447.928549	27.198000	-5.810000
	16.249929	1447.932340	27.180000	-5.770000
	16.349935	1447.936130	27.176000	-5.770000
	16.449941	1447.939921	27.170000	-5.770000
	16.549947	1447.938657	27.142000	-5.810000
	16.649952	1447.936130	27.208000	-5.820000
	16.749958	1447.933603	27.178000	-5.820000
	16.849964	1447.931076	27.188000	-5.820000
	16.949970	1447.932340	27.172000	-5.790000
	17.049975	1447.941185	27.154000	-5.730000
	17.149981	1447.941185	27.154000	-5.730000
	17.249987	1447.938658	27.150000	-5.820000
	17.349992	1447.936131	27.154000	-5.820000
	17.449998	1447.929813	27.166000	-5.850000
	17.550004	1447.928549	27.166000	-5.810000
	17.650010	1447.939922	27.146000	-5.710000
	17.750015	1447.941185	27.154000	-5.790000
	17.850021	1447.934868	27.134000	-5.850000
	17.950027	1447.926023	27.138000	-5.870000
	18.050033	1447.923496	27.162000	-5.820000
	18.150038	1447.928550	27.182000	-5.760000
	18.250044	1447.937395	27.162000	-5.730000
	18.350049	1447.938659	27.142000	-5.790000
	18.450056	1447.936132	27.146000	-5.820000
	18.550061	1447.932341	27.170000	-5.830000
	18.650067	1447.933605	27.194000	-5.790000
	18.750072	1447.942450	27.172000	-5.730000
	18.850078	1447.942450	27.172000	-5.730000
	18.950084	1447.952559	27.152000	-5.720000
	19.050090	1447.951295	27.146000	-5.810000
	19.150095	1447.942451	27.134000	-5.870000
	19.250101	1447.928552	27.188000	-5.910000
	19.350107	1447.924761	27.164000	-5.830000
	19.450113	1447.926025	27.182000	-5.790000
	19.550118	1447.931079	27.134000	-5.760000
	19.650124	1447.931079	27.148000	-5.800000
	19.750130	1447.926025	27.162000	-5.840000
	19.850135	1447.931079	27.150000	-5.760000
	19.950141	1447.936134	27.166000	-5.760000
	20.050147	1447.936134	27.170000	-5.800000
	20.150153	1447.933607	27.136000	-5.820000
	20.250158	1447.918445	27.142000	-5.920000
	20.350164	1447.918445	27.184000	-5.800000
	20.450170	1447.918445	27.184000	-5.800000
	20.550176	1447.918445	27.160000	-5.800000
	20.650181	1447.926026	27.136000	-5.740000
	20.750187	1447.924763	27.148000	-5.810000
	20.850193	1447.920972	27.150000	-5.830000
	20.950198	1447.919708	27.160000	-5.810000
	21.050204	1447.918445	27.178000	-5.810000
	21.150210	1447.924763	27.150000	-5.750000
	21.250216	1447.931081	27.160000	-5.750000
	21.350221	1447.928554	27.136000	-5.820000
	21.450227	1447.856546	27.058000	-6.370000
	21.550233	1447.859073	27.248000	-5.780000
	21.650239	1447.880555	27.160000	-5.630000
	21.750244	1447.890663	27.148000	-5.720000
	21.850250	1447.890663	27.148000	-5.720000
	21.950255	1447.889400	27.144000	-5.810000
	22.050261	1447.893190	27.144000	-5.770000
	22.150267	1447.898244	27.184000	-5.760000
	22.250273	1447.754255	26.742000	-6.940000
	22.350278	1448.046554	28.214000	-3.490000
	22.450284	1448.033918	26.996000	-5.900000
	22.550290	1447.984643	27.044000	-6.190000
	22.650296	1447.966954	27.196000	-5.940000
	22.750301	1447.886103	27.502000	-6.440000
	22.850307	1447.929070	27.148000	-5.460000
	22.950313	1447.931597	27.220000	-5.780000
	23.050319	1447.945497	26.884000	-5.690000
	23.150324	1447.835599	27.256000	-6.670000
	23.250330	1447.826755	26.770000	-5.870000
	23.350336	1447.853291	27.184000	-5.590000
	23.450341	1447.902576	27.136000	-5.410000
	23.550347	1447.902576	27.136000	-5.410000
	23.650353	1447.901312	27.180000	-5.810000
	23.750359	1447.901312	27.146000	-5.800000
	23.850364	1447.905103	27.140000	-5.770000
	23.950370	1447.908894	27.174000	-5.770000
	24.050376	1447.921530	27.140000	-5.700000
	24.150382	1447.921530	27.152000	-5.800000
	24.250387	1447.910158	27.134000	-5.890000
	24.350393	1447.912685	27.166000	-5.780000
	24.450398	1447.920267	27.200000	-5.740000
	24.550404	1447.924057	27.182000	-5.770000
	24.650410	1447.937957	27.170000	-5.690000
	24.750416	1447.937957	27.098000	-5.800000
	24.850421	1447.929112	27.172000	-5.870000
	24.950427	1447.925322	27.206000	-5.830000
	25.050433	1447.922795	27.210000	-5.820000
	25.150439	1447.922795	27.210000	-5.820000
	25.250444	1448.028980	27.406000	-4.960000
	25.350450	1447.898869	27.286000	-6.830000
	25.450456	1448.024025	27.200000	-4.810000
	25.550461	1448.000018	27.200000	-5.990000
	25.650467	1448.030348	27.136000	-5.560000
	25.750473	1447.926759	27.382000	-6.620000
	25.850479	1447.901490	27.088000	-6.000000
	25.950484	1447.900226	27.154000	-5.810000
	26.050490	1447.847167	26.958000	-6.220000
	26.150496	1447.854748	27.104000	-5.740000
	26.250502	1447.872438	27.152000	-5.660000
	26.350507	1447.863594	27.122000	-5.870000
	26.450513	1447.873702	27.210000	-5.720000
	26.550519	1447.892656	27.160000	-5.650000
	26.649524	1447.892656	27.160000	-5.650000
	26.749530	1447.777711	27.178000	-6.710000
	26.849536	1447.821938	27.104000	-5.450000
	26.949542	1447.832046	27.240000	-5.720000
	27.049547	1447.775200	27.616000	-6.250000
	27.149553	1447.914260	27.594000	-4.700000
	27.249559	1447.919315	27.162000	-5.760000
	27.349565	1447.923105	27.202000	-5.770000
	27.449570	1447.926896	27.208000	-5.770000
	27.549576	1447.925632	27.120000	-5.810000
	27.649581	1447.924369	27.128000	-5.810000
	27.749588	1447.920578	27.196000	-5.830000
	27.849593	1447.923105	27.220000	-5.780000
	27.949599	1447.881414	27.260000	-6.130000
	28.049604	1447.924380	27.076000	-5.460000
	28.149610	1447.924380	27.076000	-5.460000
	28.249616	1448.105219	26.696000	-4.370000
	28.349622	1448.071102	27.168000	-6.070000
	28.449627	1448.063520	27.214000	-5.860000
	28.549633	1448.078685	26.984000	-5.680000
	28.649639	1448.050887	27.140000	-6.020000
	28.749644	1448.014245	27.084000	-6.090000
	28.849650	1447.985184	27.176000	-6.030000
	28.949656	1447.988975	27.192000	-5.770000
	29.049662	1447.975076	27.170000	-5.910000
	29.149667	1449.165527	24.202000	3.500000
	29.249673	1449.566110	25.952000	-2.640000
	29.349679	1449.750956	25.858000	-4.340000
	29.449685	1449.933290	26.196000	-4.360000
	29.549690	1450.142273	25.876000	-4.150000
	29.649696	1450.304373	25.864000	-4.520000
	29.749701	1450.431004	25.940000	-4.800000
	29.849708	1450.431004	25.940000	-4.800000
	29.949713	1450.522171	25.892000	-5.080000
	30.049719	1450.712212	26.262000	-4.300000
	30.149724	1450.798328	25.804000	-5.120000
	30.249730	1450.865447	25.748000	-5.270000
	30.349736	1450.922435	25.590000	-5.350000
	30.449742	1450.980691	25.504000	-5.340000
	30.549747	1451.025016	25.482000	-5.450000
	30.649753	1451.078210	25.386000	-5.380000
	30.749759	1451.112405	25.358000	-5.530000
	30.849765	1451.165601	25.296000	-5.380000
	30.949770	1451.211199	25.240000	-5.440000
	31.049776	1451.252997	25.132000	-5.470000
	31.149782	1451.294797	25.064000	-5.470000
	31.249787	1451.348000	25.102000	-5.380000
	31.349793	1451.437957	24.858000	-5.090000
	31.449799	1451.437957	24.858000	-5.090000
	31.549805	1451.511442	24.602000	-5.220000
	31.649810	1451.519042	24.972000	-5.740000
	31.749816	1451.581125	24.976000	-5.310000
	31.849822	1451.584925	24.542000	-5.770000
	31.949828	1451.557059	24.936000	-6.020000
	32.049833	1451.572261	24.722000	-5.680000
	32.149839	1451.650823	24.482000	-5.180000
	32.249845	1451.771230	24.288000	-4.850000
	32.349850	1451.829521	24.204000	-5.340000
	32.449856	1451.885279	24.070000	-5.360000
	32.549862	1451.948645	24.066000	-5.300000
	32.649868	1452.171890	23.638000	-4.040000
	32.749873	1452.208645	23.996000	-5.510000
	32.849879	1452.283437	24.352000	-5.210000
	32.949885	1452.294844	23.968000	-5.710000
	33.049891	1452.294844	23.968000	-5.710000
	33.149896	1452.299913	24.018000	-5.760000
	33.249902	1452.268232	23.820000	-6.050000
	33.349907	1452.327811	23.694000	-5.330000
	33.449914	1452.416560	23.582000	-5.100000
	33.549919	1452.460929	23.482000	-5.450000
	33.649925	1452.481211	23.482000	-5.640000
	33.749930	1452.490084	23.464000	-5.730000
	33.849936	1452.523044	23.968000	-5.540000
	33.949942	1452.430536	23.586000	-6.530000
	34.049948	1452.416594	23.810000	-5.910000
	34.149953	1452.364636	23.552000	-6.210000
	34.249959	1452.311413	23.542000	-6.220000
	34.349965	1452.301274	23.502000	-5.880000
	34.449971	1452.312681	23.404000	-5.710000
	34.549976	1452.339299	23.354000	-5.590000
	34.649982	1452.339299	23.354000	-5.590000
	34.749988	1452.369720	23.310000	-5.560000
	34.849993	1452.376057	23.294000	-5.750000
	34.949999	1452.405211	23.302000	-5.570000
	35.050005	1452.416619	23.230000	-5.710000
	35.150011	1452.450845	23.116000	-5.530000
	35.250016	1452.486340	23.150000	-5.520000
	35.350022	1452.488875	23.198000	-5.780000
	35.450027	1452.468595	23.166000	-5.960000
	35.550034	1452.440713	23.182000	-6.020000
	35.650039	1452.424236	23.124000	-5.930000
	35.750045	1452.421701	23.124000	-5.820000
	35.850050	1452.415364	23.096000	-5.850000
	35.950056	1452.422969	23.106000	-5.740000
	36.050062	1452.438180	23.112000	-5.680000
	36.150068	1452.312740	23.200000	-6.790000
	36.250073	1452.326681	23.118000	-5.690000
	36.350079	1452.326681	23.118000	-5.690000
	36.450085	1452.322879	23.130000	-5.830000
	36.550091	1452.307671	23.142000	-5.920000
	36.650096	1451.629235	22.144000	-11.150000
	36.750102	1451.441830	22.936000	-7.280000
	36.850108	1451.527990	23.170000	-5.120000
	36.950113	1451.658532	23.404000	-4.770000
	37.050119	1451.740902	23.130000	-5.150000
	37.150125	1451.811867	23.164000	-5.240000
	37.250131	1451.908192	23.190000	-5.040000
	37.350136	1451.963954	23.118000	-5.360000
	37.450142	1452.009576	23.186000	-5.440000
	37.550148	1452.009576	23.186000	-5.440000
	37.650154	1452.050130	23.186000	-5.480000
	37.750159	1452.074208	23.176000	-5.610000
	37.850165	1452.089415	23.156000	-5.680000
	37.950171	1452.105889	23.194000	-5.670000
	38.050177	1452.116027	23.222000	-5.720000
	38.150182	1452.121096	23.192000	-5.760000
	38.250188	1452.117295	23.200000	-5.830000
	38.350194	1452.088151	23.184000	-6.030000
	38.450199	1452.013404	23.194000	-6.390000
	38.550205	1452.013404	23.194000	-6.390000
	38.650211	1451.941194	23.188000	-6.370000
	38.750216	1451.880386	23.214000	-6.280000
	38.850222	1451.805650	23.172000	-6.390000
	38.950228	1451.746114	23.212000	-6.270000
	39.050234	1451.694180	23.142000	-6.210000
	39.150239	1451.614388	23.132000	-6.430000
	39.250245	1451.547263	23.214000	-6.330000
	39.350251	1451.459881	23.256000	-6.490000
	39.450256	1451.459881	23.256000	-6.490000
	39.550262	1451.418088	23.250000	-6.130000
	39.650268	1451.394024	23.250000	-5.990000
	39.750274	1451.359831	23.226000	-6.070000
	39.850279	1451.319306	23.244000	-6.120000
	39.950285	1451.337039	23.428000	-5.660000
	40.050291	1451.311710	23.256000	-6.000000
	40.150297	1451.297779	23.270000	-5.910000
	40.250302	1451.277517	23.276000	-5.960000
	40.350308	1451.262320	23.272000	-5.920000
	40.450314	1451.262320	23.272000	-5.920000
	40.550319	1451.234460	23.270000	-6.020000
	40.650325	1451.223062	23.260000	-5.890000
	40.750331	1451.214198	23.276000	-5.870000
	40.850337	1451.197735	23.280000	-5.930000
	40.950342	1451.191403	23.264000	-5.850000
	41.050348	1451.185071	23.296000	-5.850000
	41.150354	1451.168609	23.258000	-5.930000
	41.250360	1451.171142	23.276000	-5.780000
	41.350365	1451.171142	23.276000	-5.780000
	41.450371	1451.164810	23.284000	-5.850000
	41.550376	1451.152147	23.274000	-5.900000
	41.650383	1451.157212	23.280000	-5.760000
	41.750388	1451.155946	23.306000	-5.810000
	41.850394	1451.148348	23.270000	-5.860000
	41.950399	1451.148348	23.316000	-5.800000
	42.050405	1451.145815	23.318000	-5.820000
	42.150411	1451.158479	23.262000	-5.700000
	42.250417	1451.154680	23.302000	-5.830000
	42.350422	1451.154680	23.302000	-5.830000
	42.450428	1451.140751	23.272000	-5.910000
	42.550434	1451.142017	23.270000	-5.790000
	42.650440	1451.135685	23.312000	-5.850000
	42.750445	1451.123022	23.306000	-5.900000
	42.850451	1451.129354	23.290000	-5.750000
	42.950457	1451.129354	23.324000	-5.800000
	43.050462	1451.126822	23.308000	-5.820000
	43.150468	1451.128088	23.302000	-5.790000
	43.256474	1451.116691	23.290000	-5.890000
	43.350480	1451.116691	23.290000	-5.890000
	43.450485	1451.129355	23.282000	-5.700000
	43.550491	1451.126823	23.310000	-5.820000
	43.650496	1451.124290	23.272000	-5.820000
	43.750503	1451.123024	23.282000	-5.810000
	43.850508	1451.116692	23.312000	-5.850000
	43.950514	1451.115426	23.312000	-5.810000
	44.049520	1451.121757	23.302000	-5.750000
	44.149525	1451.117959	23.288000	-5.830000
	44.249531	1451.133155	23.198000	-5.680000
	44.349537	1451.133155	23.198000	-5.680000
	44.449543	1451.139487	23.276000	-5.750000
	44.549548	1451.133156	23.270000	-5.850000
	44.649554	1451.130623	23.298000	-5.820000
	44.749559	1451.129357	23.292000	-5.810000
	44.849566	1451.128090	23.294000	-5.810000
	44.949571	1451.130623	23.308000	-5.780000
	45.049577	1451.139488	23.234000	-5.730000
	45.151583	1451.145820	23.296000	-5.750000
	45.249588	1451.145820	23.296000	-5.750000
	45.349594	1451.138222	23.320000	-5.860000
	45.449600	1451.128091	23.300000	-5.880000
	45.549605	1451.133157	23.312000	-5.760000
	45.649611	1451.128091	23.302000	-5.840000
	45.749617	1451.130624	23.310000	-5.780000
	45.849623	1451.133157	23.324000	-5.780000
	45.949628	1451.126825	23.294000	-5.850000
	46.049634	1451.131891	23.310000	-5.760000
	46.149640	1451.131891	23.310000	-5.760000
	46.249645	1451.130624	23.300000	-5.810000
	46.349651	1451.128092	23.288000	-5.820000
	46.449657	1451.125559	23.304000	-5.820000
	46.549663	1451.120494	23.286000	-5.840000
	46.649668	1451.116695	23.336000	-5.830000
	46.749674	1451.115428	23.318000	-5.810000
	46.849679	1451.123027	23.300000	-5.740000
	46.949686	1451.119228	23.318000	-5.830000
	47.049691	1451.116695	23.320000	-5.820000
	47.149697	1451.116695	23.320000	-5.820000
	47.249702	1451.120494	23.312000	-5.770000
	47.349708	1451.121760	23.326000	-5.790000
	47.449714	1451.117961	23.278000	-5.830000
	47.549720	1451.114162	23.324000	-5.830000
	47.649725	1451.114162	23.314000	-5.800000
	47.749731	1451.110363	23.318000	-5.830000
	47.849737	1451.105298	23.342000	-5.840000
	47.949743	1451.105298	23.296000	-5.800000
	48.049748	1451.105298	23.296000	-5.800000
	48.149754	1451.105298	23.316000	-5.800000
	48.249760	1451.101499	23.314000	-5.830000
	48.349765	1451.105298	23.328000	-5.770000
	48.449771	1451.104032	23.320000	-5.810000
	48.549777	1451.101499	23.306000	-5.820000
	48.649783	1451.102766	23.326000	-5.790000
	48.749788	1451.095168	23.328000	-5.860000
	48.849794	1451.101500	23.320000	-5.750000
	48.950800	1451.096434	23.326000	-5.840000
	49.049806	1451.096434	23.326000	-5.840000
	49.149811	1451.097701	23.270000	-5.790000
	49.249817	1451.101500	23.334000	-5.770000
	49.349823	1451.104032	23.330000	-5.780000
	49.449829	1451.106565	23.292000	-5.780000
	49.549834	1451.092636	23.332000	-5.910000
	49.649840	1451.090103	23.330000	-5.820000
	49.749846	1451.093902	23.322000	-5.770000
	49.849851	1451.087571	23.338000	-5.850000
	49.949857	1451.091370	23.302000	-5.770000
	50.049863	1451.091370	23.302000	-5.770000
	50.149868	1451.090104	23.324000	-5.810000
	50.249874	1451.087571	23.314000	-5.820000
	50.349880	1451.091370	23.308000	-5.770000
	50.449885	1451.086305	23.350000	-5.840000
	50.549891	1451.083772	23.322000	-5.820000
	50.649897	1451.091370	23.348000	-5.740000
	50.749903	1451.096436	23.320000	-5.760000
	50.849908	1451.100235	23.300000	-5.770000
	50.949914	1451.100235	23.300000	-5.770000
	51.049920	1451.086306	23.328000	-5.910000
	51.149926	1451.082507	23.312000	-5.830000
	51.249931	1451.087572	23.322000	-5.760000
	51.349937	1451.077442	23.330000	-5.880000
	51.449943	1451.082507	23.298000	-5.760000
	51.549949	1451.087573	23.330000	-5.760000
	51.649954	1451.083774	23.338000	-5.830000
	51.749960	1451.087573	23.310000	-5.770000
	51.849966	1451.087573	23.310000	-5.770000
	51.949971	1451.088839	23.328000	-5.790000
	52.049977	1451.083774	23.324000	-5.840000
	52.149983	1451.088839	23.342000	-5.760000
	52.249989	1451.091372	23.318000	-5.780000
	52.349994	1451.081242	23.298000	-5.880000
	52.450000	1451.077443	23.360000	-5.830000
	52.550006	1451.068579	23.312000	-5.870000
	52.650012	1451.069845	23.310000	-5.790000
	52.750017	1451.073644	23.348000	-5.770000
	52.850023	1451.077443	23.340000	-5.770000
	52.950028	1451.077443	23.340000	-5.770000
	53.050035	1451.078710	23.336000	-5.790000
	53.150040	1451.076177	23.332000	-5.820000
	53.250046	1451.074911	23.346000	-5.810000
	53.350051	1451.088841	23.340000	-5.690000
	53.450057	1451.085042	23.336000	-5.830000
	53.550063	1451.082509	23.338000	-5.820000
	53.650069	1451.076178	23.340000	-5.850000
	53.750074	1451.079977	23.306000	-5.770000
	53.850080	1451.090108	23.306000	-5.720000
	53.950086	1451.090108	23.306000	-5.720000
	54.050092	1451.083776	23.340000	-5.850000
	54.150097	1451.083776	23.308000	-5.800000
	54.250103	1451.087575	23.326000	-5.770000
	54.350109	1451.082510	23.324000	-5.840000
	54.450114	1451.085043	23.332000	-5.780000
	54.550120	1451.078711	23.326000	-5.850000
	54.652126	1451.067315	23.300000	-5.890000
	54.750132	1451.067315	23.300000	-5.890000
	54.850137	1451.068581	23.340000	-5.790000
	54.950143	1451.071114	23.344000	-5.780000
	55.050149	1451.072380	23.324000	-5.790000
	55.150155	1451.077445	23.334000	-5.760000
	55.250160	1451.073646	23.334000	-5.830000
	55.350166	1451.078712	23.320000	-5.760000
	55.450171	1451.079978	23.344000	-5.790000
	55.550178	1451.078712	23.356000	-5.810000
	55.650183	1451.076179	23.312000	-5.820000
	55.752189	1451.078712	23.360000	-5.780000
	55.850194	1451.072380	23.330000	-5.850000
	55.950200	1451.086310	23.266000	-5.690000
	56.050206	1451.086310	23.266000	-5.690000
	56.150212	1451.085044	23.332000	-5.810000
	56.250217	1451.076180	23.336000	-5.870000
	56.350223	1451.083778	23.338000	-5.740000
	56.450229	1451.081246	23.326000	-5.820000
	56.551235	1451.078713	23.310000	-5.820000
	56.650240	1451.073648	23.316000	-5.840000
	56.750246	1451.068583	23.340000	-5.840000
	56.850252	1451.064784	23.310000	-5.830000
	56.953258	1451.064784	23.310000	-5.830000
	57.050263	1451.067317	23.328000	-5.780000
	57.150269	1451.067317	23.322000	-5.800000
	57.250275	1451.071115	23.330000	-5.770000
	57.350280	1451.064784	23.334000	-5.850000
	57.450286	1451.060985	23.320000	-5.830000
	57.550292	1451.064784	23.338000	-5.770000
	57.650298	1451.063518	23.356000	-5.810000
	57.750303	1451.067317	23.316000	-5.770000
	57.850309	1451.074915	23.308000	-5.740000
	57.950315	1451.074915	23.308000	-5.740000
	58.050321	1451.067317	23.350000	-5.860000
	58.150326	1451.072382	23.348000	-5.760000
	58.250332	1451.068584	23.352000	-5.830000
	58.350338	1451.064785	23.354000	-5.830000
	58.450343	1451.072383	23.326000	-5.740000
	58.550349	1451.072383	23.306000	-5.800000
	58.650355	1451.069850	23.342000	-5.820000
	58.753361	1451.069850	23.342000	-5.820000
	58.850366	1451.069850	23.330000	-5.800000
	58.950372	1451.068584	23.344000	-5.810000
	59.050377	1451.068584	23.340000	-5.800000
	59.150383	1451.076182	23.340000	-5.740000
	59.250389	1451.077448	23.334000	-5.790000
	59.350395	1451.083780	23.342000	-5.750000
	59.451400	1451.079981	23.344000	-5.830000
	59.550406	1451.085046	23.338000	-5.760000
	59.650412	1451.085046	23.316000	-5.800000
	59.750418	1451.085046	23.316000	-5.800000
	59.850423	1451.079981	23.326000	-5.840000
	59.950429	1451.087579	23.314000	-5.740000
	60.050435	1451.081248	23.336000	-5.850000
	60.150441	1451.079981	23.308000	-5.810000
	60.250446	1451.081248	23.344000	-5.790000
	60.350452	1451.072384	23.328000	-5.870000
	60.450458	1451.076183	23.344000	-5.770000
	60.550463	1451.077449	23.372000	-5.790000
	60.650469	1451.071118	23.322000	-5.850000
	60.750475	1451.071118	23.322000	-5.850000
	60.853481	1451.076183	23.332000	-5.760000
	60.950486	1451.083781	23.364000	-5.740000
	61.050492	1451.087580	23.332000	-5.770000
	61.150498	1451.088846	23.348000	-5.790000
	61.250504	1451.077450	23.342000	-5.890000
	61.351509	1451.078716	23.320000	-5.790000
	61.450515	1451.079983	23.332000	-5.790000
	61.549520	1451.076184	23.328000	-5.830000
	61.649526	1451.076184	23.328000	-5.830000
	61.749532	1451.073651	23.338000	-5.820000
	61.849538	1451.069852	23.300000	-5.830000
	61.949543	1451.076184	23.314000	-5.750000
	62.049549	1451.076184	23.334000	-5.800000
	62.149555	1451.076184	23.330000	-5.800000
	62.249561	1451.088847	23.322000	-5.700000
	62.350566	1451.079984	23.326000	-5.870000
	62.449572	1451.079984	23.326000	-5.870000
	62.549578	1451.088848	23.346000	-5.730000
	62.649583	1451.077452	23.330000	-5.890000
	62.749589	1451.071120	23.324000	-5.850000
	62.850595	1451.071120	23.338000	-5.800000
	62.949601	1451.071120	23.342000	-5.800000
	63.052607	1451.072386	23.322000	-5.790000
	63.149612	1451.067321	23.324000	-5.840000
	63.250618	1451.060990	23.338000	-5.850000
	63.349624	1451.069854	23.326000	-5.730000
	63.449629	1451.071121	23.344000	-5.790000
	63.549635	1451.071121	23.344000	-5.790000
	63.649641	1451.071121	23.316000	-5.800000
	63.749646	1451.062257	23.336000	-5.870000
	63.849652	1451.060991	23.366000	-5.810000
	63.949658	1451.067322	23.338000	-5.750000
	64.049664	1451.077453	23.338000	-5.720000
	64.149669	1451.073654	23.344000	-5.830000
	64.249675	1451.069855	23.324000	-5.830000
	64.349681	1451.072388	23.332000	-5.780000
	64.449687	1451.071121	23.338000	-5.810000
	64.549692	1451.071121	23.338000	-5.810000
	64.649698	1451.074920	23.378000	-5.770000
	64.749703	1451.073654	23.342000	-5.810000
	64.849710	1451.076187	23.318000	-5.780000
	64.949715	1451.077453	23.340000	-5.790000
	65.049721	1451.071122	23.348000	-5.850000
	65.149726	1451.073654	23.322000	-5.780000
	65.249732	1451.072388	23.350000	-5.810000
	65.349738	1451.077453	23.320000	-5.760000
	65.451744	1451.077453	23.320000	-5.760000
	65.602752	1451.083785	23.346000	-5.750000
	65.699758	1451.086318	23.328000	-5.780000
	65.799764	1451.102781	23.332000	-5.670000
	65.899769	1451.105313	23.344000	-5.780000
	65.999775	1451.109112	23.314000	-5.770000
	66.099781	1451.104047	23.322000	-5.840000
	66.199787	1451.104047	23.326000	-5.800000
	66.302793	1451.112912	23.330000	-5.730000
	66.399798	1451.112912	23.346000	-5.800000
	66.499804	1451.117977	23.330000	-5.760000
	66.599809	1451.117977	23.330000	-5.760000
	66.703815	1451.116711	23.336000	-5.810000
	66.799821	1451.115444	23.330000	-5.810000
	66.899827	1451.121776	23.324000	-5.750000
	66.999832	1451.120510	23.324000	-5.810000
	67.099838	1451.110379	23.346000	-5.880000
	67.199844	1451.112912	23.330000	-5.780000
	67.299850	1451.112912	23.356000	-5.800000
	67.399855	1451.111646	23.318000	-5.810000
	67.499861	1451.119244	23.324000	-5.740000
	67.599866	1451.119244	23.324000	-5.740000
	67.699872	1451.105315	23.328000	-5.910000
	67.799878	1451.107848	23.336000	-5.780000
	67.899884	1451.106581	23.332000	-5.810000
	67.999889	1451.106581	23.338000	-5.800000
	68.099895	1451.105315	23.326000	-5.810000
	68.199901	1451.101516	23.360000	-5.830000
	68.299907	1451.106581	23.318000	-5.760000
	68.399912	1451.102782	23.320000	-5.830000
	68.500918	1451.098984	23.342000	-5.830000
	68.599924	1451.098984	23.342000	-5.830000
	68.699930	1451.107848	23.340000	-5.730000
	68.799935	1451.100250	23.346000	-5.860000
	68.899941	1451.100250	23.340000	-5.800000
	68.999947	1451.090120	23.364000	-5.880000
	69.099952	1451.088854	23.306000	-5.810000
	69.199958	1451.095185	23.332000	-5.750000
	69.299964	1451.093919	23.366000	-5.810000
	69.399970	1451.106583	23.332000	-5.700000
	69.499975	1451.106583	23.332000	-5.700000
	69.599981	1451.112915	23.350000	-5.750000
	69.699987	1451.110382	23.328000	-5.820000
	69.799993	1451.114181	23.338000	-5.770000
	69.899998	1451.119247	23.356000	-5.760000
	70.000004	1451.115448	23.348000	-5.830000
	70.100009	1451.116714	23.338000	-5.790000
	70.200015	1451.114181	23.340000	-5.820000
	70.300021	1451.120513	23.322000	-5.750000
	70.401027	1451.114181	23.330000	-5.850000
	70.500032	1451.114181	23.330000	-5.850000
	70.600038	1451.106584	23.338000	-5.860000
	70.700044	1451.109116	23.332000	-5.780000
	70.800050	1451.100252	23.352000	-5.870000
	70.900055	1451.111650	23.332000	-5.710000
	71.000061	1451.125580	23.360000	-5.690000
	71.100067	1451.124314	23.322000	-5.810000
	71.200072	1451.129379	23.308000	-5.760000
	71.300078	1451.124314	23.342000	-5.840000
	71.400084	1451.124314	23.342000	-5.840000
	71.500090	1451.125580	23.332000	-5.790000
	71.600095	1451.130646	23.308000	-5.760000
	71.700101	1451.126847	23.344000	-5.830000
	71.800107	1451.125580	23.320000	-5.810000
	71.900113	1451.114184	23.338000	-5.890000
	72.000118	1451.105320	23.330000	-5.870000
	72.101124	1451.112918	23.344000	-5.740000
	72.200130	1451.117983	23.336000	-5.760000
	72.300136	1451.112918	23.318000	-5.840000
	72.400141	1451.115451	23.334000	-5.780000
	72.500147	1451.115451	23.334000	-5.780000
	72.601152	1451.104054	23.328000	-5.890000
	72.700158	1451.106587	23.310000	-5.780000
	72.800164	1451.115451	23.326000	-5.730000
	72.900170	1451.110386	23.320000	-5.840000
	73.000175	1451.115451	23.328000	-5.760000
	73.100181	1451.114185	23.360000	-5.810000
	73.200187	1451.116718	23.332000	-5.780000
	73.300193	1451.120517	23.338000	-5.770000
	73.400198	1451.120517	23.338000	-5.770000
	73.500204	1451.123050	23.340000	-5.780000
	73.600210	1451.117984	23.342000	-5.840000
	73.700215	1451.116718	23.322000	-5.810000
	73.800221	1451.114185	23.344000	-5.820000
	73.900227	1451.124316	23.328000	-5.720000
	74.000233	1451.126849	23.338000	-5.780000
	74.100238	1451.124316	23.294000	-5.820000
	74.203244	1451.131915	23.334000	-5.740000
	74.300250	1451.124317	23.358000	-5.860000
	74.400256	1451.124317	23.358000	-5.860000
	74.500261	1451.123050	23.326000	-5.810000
	74.600267	1451.125583	23.332000	-5.780000
	74.701272	1451.121784	23.336000	-5.830000
	74.800278	1451.120518	23.332000	-5.810000
	74.900284	1451.120518	23.310000	-5.800000
	75.000290	1451.119251	23.366000	-5.810000
	75.100296	1451.125583	23.342000	-5.750000
	75.200301	1451.133182	23.344000	-5.740000
	75.300307	1451.133182	23.344000	-5.740000
	75.400313	1451.128116	23.364000	-5.840000
	75.500319	1451.129383	23.288000	-5.790000
	75.600324	1451.135714	23.364000	-5.750000
	75.700330	1451.129383	23.346000	-5.850000
	75.800335	1451.135715	23.342000	-5.750000
	75.900342	1451.135715	23.318000	-5.800000
	76.000347	1451.138247	23.336000	-5.780000
	76.102353	1451.143313	23.294000	-5.760000
	76.200358	1451.140780	23.376000	-5.820000
	76.300364	1451.140780	23.376000	-5.820000
	76.400370	1451.135715	23.318000	-5.840000
	76.500376	1451.135715	23.308000	-5.800000
	76.600381	1451.136981	23.360000	-5.790000
	76.700387	1451.133182	23.314000	-5.830000
	76.800393	1451.143313	23.340000	-5.720000
	76.900399	1451.067349	23.470000	-6.400000
	77.000404	1451.054686	23.252000	-5.900000
	77.101410	1451.069883	23.320000	-5.680000
	77.200416	1451.080013	23.330000	-5.720000
	77.300421	1451.090144	23.286000	-5.720000
	77.400427	1451.090144	23.286000	-5.720000
	77.500433	1451.097742	23.314000	-5.740000
	77.600439	1451.101541	23.382000	-5.770000
	77.700444	1451.095210	23.284000	-5.850000
	77.800450	1451.101542	23.344000	-5.750000
	77.900455	1451.095210	23.320000	-5.850000
	78.002461	1451.102808	23.308000	-5.740000
	78.100467	1451.107874	23.350000	-5.760000
	78.200473	1451.107874	23.350000	-5.760000
	78.300478	1451.096477	23.284000	-5.890000
	78.400484	1451.112940	23.316000	-5.670000
	78.500490	1451.147136	23.322000	-5.530000
	78.600496	1451.139538	23.318000	-5.860000
	78.700501	1451.148402	23.252000	-5.730000
	78.800507	1451.148402	23.338000	-5.800000
	78.900513	1451.161067	23.332000	-5.700000
	79.000519	1451.145871	23.364000	-5.920000
	79.099524	1451.068640	23.362000	-6.410000
	79.199530	1451.068640	23.362000	-6.410000
	79.299536	1450.926866	23.406000	-6.920000
	79.399541	1450.724367	23.408000	-7.400000
	79.499547	1450.515571	23.424000	-7.450000
	79.599553	1450.343490	23.496000	-7.160000
	79.699559	1450.141072	23.558000	-7.400000
	79.799564	1449.924771	23.562000	-7.510000
	79.901570	1449.721148	23.574000	-7.410000
	79.999576	1449.520081	23.540000	-7.390000
	80.099582	1449.520081	23.540000	-7.390000
	80.199587	1449.340534	23.590000	-7.220000
	80.299593	1449.182496	23.616000	-7.050000
	80.399599	1449.033323	23.620000	-6.980000
	80.499604	1448.914496	23.610000	-6.740000
	80.599610	1448.808317	23.580000	-6.640000
	80.699616	1448.724892	23.574000	-6.460000
	80.799622	1448.651581	23.590000	-6.380000
	80.899627	1448.578274	23.594000	-6.380000
	80.999633	1448.506235	23.582000	-6.370000
	81.099639	1448.506235	23.582000	-6.370000
	81.199645	1448.362185	24.044000	-6.940000
	81.299650	1448.338172	23.536000	-5.990000
	81.399656	1448.261091	23.372000	-6.410000
	81.499661	1448.221916	23.556000	-6.110000
	81.599667	1448.209279	23.296000	-5.900000
	81.699673	1448.170106	23.584000	-6.110000
	81.803679	1448.113246	23.632000	-6.250000
	81.899684	1448.106928	23.512000	-5.850000
	81.999690	1448.079129	23.564000	-6.020000
	82.099696	1448.079129	23.564000	-6.020000
	82.199702	1448.061438	23.560000	-5.940000
	82.299707	1448.034903	23.560000	-6.010000
	82.399713	1447.998262	23.530000	-6.090000
	82.499719	1447.972992	23.524000	-6.000000
	82.599724	1447.964147	23.558000	-5.870000
	82.699730	1447.960356	23.640000	-5.830000
	82.801736	1447.999533	23.528000	-5.490000
	82.899742	1447.980580	23.546000	-5.950000
	82.999747	1447.980580	23.526000	-5.800000
	83.099753	1447.980580	23.526000	-5.800000
	83.199759	1447.917412	23.688000	-6.300000
	83.299765	1447.899723	23.686000	-5.940000
	83.399770	1447.897196	23.550000	-5.820000
	83.499776	1447.875718	23.558000	-5.970000
	83.602782	1447.875718	23.550000	-5.800000
	83.699788	1447.922476	23.356000	-5.430000
	83.799793	1447.914895	23.548000	-5.860000
	83.899799	1447.907314	23.538000	-5.860000
	83.999804	1447.907314	23.538000	-5.860000
	84.099810	1447.895942	23.564000	-5.890000
	84.199816	1447.889625	23.554000	-5.850000
	84.299822	1447.883307	23.534000	-5.850000
	84.399827	1447.866883	23.530000	-5.930000
	84.499833	1447.869410	23.516000	-5.780000
	84.599839	1447.873200	23.502000	-5.770000
	84.699845	1447.871937	23.490000	-5.810000
	84.799850	1447.863092	23.492000	-5.870000
	84.899856	1447.851721	23.524000	-5.890000
	84.999862	1447.847931	23.522000	-5.830000
	85.099867	1447.847931	23.522000	-5.830000
	85.199873	1447.836560	23.508000	-5.890000
	85.299879	1447.817609	23.544000	-5.950000
	85.399885	1447.812555	23.530000	-5.840000
	85.499890	1447.799921	23.530000	-5.900000
	85.599896	1447.783497	23.512000	-5.930000
	85.699902	1447.779707	23.528000	-5.830000
	85.799908	1447.774654	23.510000	-5.840000
	85.899913	1447.770863	23.528000	-5.830000
	85.999919	1447.719072	23.350000	-6.210000
	86.099925	1447.719072	23.350000	-6.210000
	86.199930	1447.582675	23.400000	-6.880000
	86.299936	1447.614260	23.546000	-5.550000
	86.399942	1447.573841	23.580000	-6.120000
	86.499948	1447.551104	23.582000	-5.980000
	86.600954	1447.547314	23.044000	-5.830000
	86.699959	1447.494268	23.298000	-6.220000
	86.799965	1447.568817	23.626000	-5.210000
	86.899971	1447.589030	23.566000	-5.640000
	86.999976	1447.607980	23.482000	-5.650000
	87.099982	1447.635775	23.538000	-5.580000
	87.199987	1447.661044	23.534000	-5.600000
	87.299994	1447.667360	23.520000	-5.750000
	87.399999	1447.668624	23.536000	-5.790000
	87.500005	1447.673677	23.546000	-5.760000
	87.600010	1447.673677	23.546000	-5.760000
	87.700016	1447.672414	23.530000	-5.810000
	87.800022	1447.685048	23.540000	-5.700000
	87.900028	1447.687574	23.508000	-5.780000
	88.000033	1447.702735	23.572000	-5.680000
	88.100039	1447.711579	23.522000	-5.730000
	88.202045	1447.770971	23.484000	-5.330000
	88.300051	1447.769707	23.530000	-5.810000
	88.400056	1447.735599	23.494000	-6.070000
	88.500062	1447.738126	23.534000	-5.780000
	88.600068	1447.730546	23.504000	-5.860000
	88.700073	1447.669914	23.380000	-6.280000
	88.800079	1447.656018	23.582000	-5.910000
	88.900085	1447.656018	23.582000	-5.910000
	89.000091	1447.642123	23.552000	-5.910000
	89.100096	1447.650966	23.524000	-5.730000
	89.200102	1447.630754	23.600000	-5.960000
	89.300108	1447.629491	23.486000	-5.810000
	89.400114	1447.620648	23.520000	-5.870000
	89.500119	1447.608016	23.540000	-5.900000
	89.600125	1447.597910	23.530000	-5.880000
	89.700130	1447.587804	23.486000	-5.880000
	89.800137	1447.587804	23.486000	-5.880000
	89.900142	1447.584015	23.518000	-5.830000
	90.000148	1447.576435	23.490000	-5.860000
	90.100153	1447.568856	23.530000	-5.860000
	90.200159	1447.563803	23.532000	-5.840000
	90.300165	1447.557487	23.556000	-5.850000
	90.400171	1447.552434	23.550000	-5.840000
	90.500176	1447.553697	23.538000	-5.790000
	90.600182	1447.553697	23.534000	-5.800000
	90.700188	1447.561277	23.554000	-5.740000
	90.800194	1447.561277	23.554000	-5.740000
	90.900199	1447.565067	23.514000	-5.770000
	91.000205	1447.570120	23.516000	-5.760000
	91.100211	1447.578963	23.528000	-5.730000
	91.200216	1447.572647	23.526000	-5.850000
	91.300222	1447.566331	23.522000	-5.850000
	91.400228	1447.557488	23.538000	-5.870000
	91.500234	1447.551172	23.542000	-5.850000
	91.600239	1447.549909	23.540000	-5.810000
	91.700245	1447.554962	23.542000	-5.760000
	91.800251	1447.554962	23.542000	-5.760000
	91.950259	1447.560015	23.540000	-5.760000
	92.050265	1447.570121	23.524000	-5.720000
	92.150271	1447.602969	23.504000	-5.540000
	92.250277	1447.602969	23.534000	-5.800000
	92.350282	1447.604233	23.508000	-5.790000
	92.450288	1447.600443	23.510000	-5.830000
	92.550294	1447.590337	23.508000	-5.880000
	92.650300	1447.582758	23.530000	-5.860000
	92.750305	1447.572652	23.518000	-5.880000
	92.850311	1447.572652	23.518000	-5.880000
	92.952317	1447.571389	23.542000	-5.810000
	93.050323	1447.566336	23.548000	-5.840000
	93.150328	1447.566336	23.526000	-5.800000
	93.250334	1447.565073	23.568000	-5.810000
	93.350339	1447.565073	23.540000	-5.800000
	93.450345	1447.565073	23.578000	-5.800000
	93.552351	1447.563809	23.530000	-5.810000
	93.650357	1447.565073	23.452000	-5.790000
	93.751362	1447.302442	22.604000	-7.880000
	93.850368	1447.302442	22.604000	-7.880000
	93.950374	1447.395940	23.528000	-5.060000
	94.050379	1447.364366	23.422000	-6.050000
	94.150385	1447.345421	23.336000	-5.950000
	94.250391	1447.325214	23.512000	-5.960000
	94.350397	1447.349214	23.502000	-5.610000
	94.450402	1447.375740	23.524000	-5.590000
	94.550408	1447.394688	23.546000	-5.650000
	94.650414	1447.416162	23.572000	-5.630000
	94.753420	1447.416162	23.572000	-5.630000
	94.850425	1447.428793	23.546000	-5.700000
	94.950431	1447.442688	23.536000	-5.690000
	95.050436	1447.461637	23.568000	-5.650000
	95.150443	1447.473005	23.538000	-5.710000
	95.250448	1447.486901	23.510000	-5.690000
	95.350454	1447.497007	23.538000	-5.720000
	95.450459	1447.510902	23.508000	-5.690000
	95.550465	1447.514692	23.486000	-5.770000
	95.650471	1447.514692	23.554000	-5.800000
	95.750477	1447.514692	23.554000	-5.800000
	95.850482	1447.660052	23.554000	-4.650000
	95.950488	1447.636051	23.572000	-5.990000
	96.050494	1447.623418	23.518000	-5.900000
	96.150500	1447.609523	23.562000	-5.910000
	96.250505	1447.589311	23.536000	-5.960000
	96.350511	1447.565311	23.568000	-5.990000
	96.450517	1447.553943	23.574000	-5.890000
	96.549522	1447.541311	23.566000	-5.900000
	96.649528	1447.541311	23.566000	-5.900000
	96.749534	1447.534995	23.582000	-5.850000
	96.849540	1447.528679	23.574000	-5.850000
	96.949545	1447.522363	23.556000	-5.850000
	97.049551	1447.509732	23.546000	-5.900000
	97.149557	1447.484470	23.560000	-6.000000
	97.249562	1447.473102	23.596000	-5.890000
	97.349568	1447.470576	23.570000	-5.820000
	97.449574	1447.459208	23.546000	-5.890000
	97.549580	1447.450366	23.556000	-5.870000
	97.649585	1447.441524	23.576000	-5.870000
	97.749591	1447.441524	23.576000	-5.870000
	97.849597	1447.440261	23.604000	-5.810000
	97.949603	1447.437735	23.604000	-5.820000
	98.049608	1447.452893	23.560000	-5.680000
	98.149614	1447.431421	23.478000	-5.970000
	98.249619	1447.451633	23.430000	-5.640000
	98.349626	1447.373336	24.066000	-6.420000
	98.449631	1447.408707	23.636000	-5.520000
	98.549637	1447.397339	23.090000	-5.890000
	98.649642	1447.397339	23.090000	-5.890000
	98.749648	1447.449136	23.490000	-5.390000
	98.849654	1447.451662	23.572000	-5.780000
	98.949660	1447.440295	23.560000	-5.890000
	99.049665	1447.433979	23.556000	-5.850000
	99.149671	1447.432716	23.578000	-5.810000
	99.249677	1447.431453	23.592000	-5.810000
	99.349683	1447.426401	23.610000	-5.840000
	99.449688	1447.430190	23.618000	-5.770000
	99.556695	1447.430190	23.618000	-5.770000
	99.649700	1447.432716	23.612000	-5.780000
	99.749705	1447.437769	23.578000	-5.760000
	99.849711	1447.444085	23.570000	-5.750000
	99.949717	1447.441558	23.584000	-5.820000
	100.049723	1447.442821	23.562000	-5.790000
	100.149728	1447.442821	23.578000	-5.800000
	100.249734	1447.421350	23.604000	-5.970000
	100.349740	1447.430192	23.564000	-5.730000
	100.449746	1447.431455	23.580000	-5.790000
	100.549751	1447.431455	23.580000	-5.790000
	100.649757	1447.399880	23.624000	-6.050000
	100.749763	1447.401143	23.580000	-5.790000
	100.849769	1447.399880	23.574000	-5.810000
	100.949774	1447.394828	23.584000	-5.840000
	101.049780	1447.398617	23.614000	-5.770000
	101.149786	1447.404933	23.586000	-5.750000
	101.249791	1447.411248	23.594000	-5.750000
	101.349797	1447.417564	23.582000	-5.750000
	101.449803	1447.417564	23.582000	-5.750000
	101.549809	1447.426406	23.560000	-5.730000
	101.649814	1447.432722	23.580000	-5.750000
	101.749820	1447.446617	23.612000	-5.690000
	101.849825	1447.455459	23.584000	-5.730000
	101.949831	1447.451670	23.564000	-5.830000
	102.049837	1447.451670	23.590000	-5.800000
	102.149843	1447.451670	23.582000	-5.800000
	102.249848	1447.452933	23.548000	-5.790000
	102.349854	1447.489569	23.622000	-5.510000
	102.449860	1447.489569	23.622000	-5.510000
	102.551866	1447.531260	23.638000	-5.470000
	102.649871	1447.569162	23.644000	-5.500000
	102.749877	1447.638659	23.622000	-5.250000
	102.849883	1447.665191	23.510000	-5.590000
	102.949889	1447.646242	23.692000	-5.950000
	103.049894	1447.660139	23.622000	-5.690000
	103.149900	1447.675300	23.604000	-5.680000
	103.249906	1447.656351	23.646000	-5.950000
	103.349911	1447.660141	23.636000	-5.770000
	103.449917	1447.660141	23.636000	-5.770000
	103.550923	1447.661404	23.610000	-5.790000
	103.649929	1447.666458	23.614000	-5.760000
	103.749934	1447.671511	23.626000	-5.760000
	103.849940	1447.671511	23.632000	-5.800000
	103.949946	1447.660142	23.622000	-5.890000
	104.049952	1447.660142	23.612000	-5.800000
	104.149957	1447.696783	23.280000	-5.510000
	104.249963	1447.676570	23.576000	-5.960000
	104.349968	1447.676570	23.576000	-5.960000
	104.449975	1447.713212	24.132000	-5.510000
	104.549980	1447.686684	23.742000	-6.010000
	104.649986	1447.665208	23.592000	-5.970000
	104.749991	1447.677842	23.484000	-5.700000
	104.849997	1447.691740	23.586000	-5.690000
	104.950003	1447.675317	23.638000	-5.930000
	105.050009	1447.632369	23.570000	-6.140000
	105.150014	1447.614684	23.628000	-5.940000
	105.250020	1447.595736	23.596000	-5.950000
	105.350026	1447.595736	23.596000	-5.950000
	105.450031	1447.576789	23.578000	-5.950000
	105.550037	1447.560367	23.622000	-5.930000
	105.650043	1447.545209	23.594000	-5.920000
	105.750049	1447.527525	23.592000	-5.940000
	105.850054	1447.514894	23.604000	-5.900000
	105.950060	1447.513630	23.606000	-5.810000
	106.050066	1447.500999	23.580000	-5.900000
	106.150072	1447.493420	23.596000	-5.860000
	106.250077	1447.489631	23.556000	-5.830000
	106.350083	1447.469421	23.570000	-5.960000
	106.450089	1447.469421	23.570000	-5.960000
	106.550095	1447.458053	23.582000	-5.890000
	106.650100	1447.444159	23.592000	-5.910000
	106.750106	1447.441633	23.560000	-5.820000
	106.850111	1447.430265	23.564000	-5.890000
	106.950117	1447.402479	23.564000	-6.020000
	107.050123	1447.384797	23.556000	-5.940000
	107.150129	1447.381008	23.592000	-5.830000
	107.250134	1447.381008	23.592000	-5.830000
	107.352140	1447.379745	23.584000	-5.810000
	107.450146	1447.382271	23.572000	-5.780000
	107.550152	1447.381008	23.566000	-5.810000
	107.650157	1447.377219	23.568000	-5.830000
	107.750163	1447.360799	23.606000	-5.930000
	107.850169	1447.357010	23.550000	-5.830000
	107.950174	1447.358273	23.558000	-5.790000
	108.055181	1447.497294	23.498000	-4.700000
	108.150186	1447.497294	23.498000	-4.700000
	108.250192	1447.477084	23.552000	-5.960000
	108.350197	1447.456875	23.542000	-5.960000
	108.450203	1447.440455	23.528000	-5.930000
	108.550209	1447.429087	23.530000	-5.890000
	108.650215	1447.416456	23.534000	-5.900000
	108.750220	1447.406352	23.536000	-5.880000
	108.850226	1447.182885	22.704000	-7.570000
	108.950232	1446.916536	25.132000	-7.910000
	109.050237	1446.983475	23.534000	-5.270000
	109.150243	1446.973374	23.502000	-5.880000
	109.250249	1446.973374	23.502000	-5.880000
	109.350255	1447.032735	23.534000	-5.330000
	109.450260	1447.078203	23.556000	-5.440000
	109.550266	1447.116093	23.534000	-5.500000
	109.650272	1447.147668	23.560000	-5.550000
	109.750278	1447.170401	23.562000	-5.620000
	109.850283	1447.190609	23.572000	-5.640000
	109.950289	1447.207028	23.562000	-5.670000
	110.050294	1447.220921	23.558000	-5.690000
	110.150301	1447.220921	23.558000	-5.690000
	110.250306	1447.237340	23.560000	-5.670000
	110.350312	1447.251233	23.578000	-5.690000
	110.450317	1447.272705	23.584000	-5.630000
	110.550323	1447.276494	23.566000	-5.770000
	110.650329	1447.287861	23.552000	-5.710000
	110.750335	1447.296703	23.580000	-5.730000
	110.850340	1447.306807	23.574000	-5.720000
	110.952346	1447.318175	23.572000	-5.710000
	111.050352	1447.329542	23.558000	-5.710000
	111.150358	1447.329542	23.558000	-5.710000
	111.250363	1447.338384	23.534000	-5.730000
	111.350369	1447.349752	23.562000	-5.710000
	111.450375	1447.368699	23.472000	-5.650000
	111.550380	1447.368699	23.566000	-5.800000
	111.650386	1447.368699	23.532000	-5.800000
	111.750392	1447.376277	23.562000	-5.740000
	111.850398	1447.378803	23.542000	-5.780000
	111.950403	1447.375014	23.532000	-5.830000
	112.050409	1447.376277	23.552000	-5.790000
	112.150414	1447.376277	23.552000	-5.790000
	112.250421	1447.376277	23.528000	-5.800000
	112.350426	1447.373751	23.554000	-5.820000
	112.450432	1447.371225	23.562000	-5.820000
	112.551438	1447.368699	23.560000	-5.820000
	112.650443	1447.358595	23.550000	-5.880000
	112.750449	1447.347228	23.554000	-5.890000
	112.850455	1447.343439	23.546000	-5.830000
	112.950460	1447.340913	23.550000	-5.820000
	113.051466	1447.342176	23.536000	-5.790000
	113.150472	1447.342176	23.536000	-5.790000
	113.250478	1447.337123	23.544000	-5.840000
	113.350483	1447.338387	23.546000	-5.790000
	113.450489	1447.337123	23.570000	-5.810000
	113.550495	1447.333334	23.572000	-5.830000
	113.650500	1447.334597	23.564000	-5.790000
	113.752506	1447.337124	23.586000	-5.780000
	113.850512	1447.340913	23.566000	-5.770000
	113.950518	1447.339650	23.572000	-5.810000
	114.049523	1447.348491	23.566000	-5.730000
	114.149529	1447.359859	23.564000	-5.710000
	114.249535	1447.367438	23.558000	-5.740000
	114.349541	1447.372490	23.556000	-5.760000
	114.450546	1447.373753	23.558000	-5.790000
	114.549552	1447.368701	23.556000	-5.840000
	114.649558	1447.364912	23.552000	-5.830000
	114.749563	1447.364912	23.554000	-5.800000
	114.849569	1447.364912	23.554000	-5.800000
	114.949575	1447.352282	23.586000	-5.900000
	115.049581	1447.356071	23.578000	-5.770000
	115.149586	1447.358597	23.588000	-5.780000
	115.249592	1447.361123	23.584000	-5.780000
	115.349598	1447.366176	23.574000	-5.760000
	115.449604	1447.369965	23.558000	-5.770000
	115.549609	1447.377543	23.558000	-5.740000
	115.649615	1447.387648	23.558000	-5.720000
	115.749620	1447.392701	23.576000	-5.760000
	115.849627	1447.390175	23.552000	-5.820000
	115.949632	1447.391438	23.540000	-5.790000
	116.049638	1447.391438	23.540000	-5.790000
	116.149643	1447.382596	23.544000	-5.870000
	116.249649	1447.385123	23.552000	-5.780000
	116.349655	1447.383859	23.564000	-5.810000
	116.449661	1447.385123	23.558000	-5.790000
	116.549666	1447.371229	23.536000	-5.910000
	116.650672	1447.362388	23.556000	-5.870000
	116.749678	1447.358599	23.552000	-5.830000
	116.849683	1447.357336	23.564000	-5.810000
	116.949689	1447.357336	23.564000	-5.810000
	117.049695	1447.349758	23.560000	-5.860000
	117.149701	1447.351021	23.566000	-5.790000
	117.249706	1447.347232	23.540000	-5.830000
	117.349712	1447.337128	23.570000	-5.880000
	117.449718	1447.339654	23.536000	-5.780000
	117.549724	1447.344706	23.556000	-5.760000
	117.649729	1447.349758	23.574000	-5.760000
	117.749735	1447.349758	23.554000	-5.800000
	117.849741	1447.351021	23.566000	-5.790000
	117.949747	1447.351021	23.566000	-5.790000
	118.049752	1447.348495	23.590000	-5.820000
	118.149758	1447.351021	23.600000	-5.780000
	118.249763	1447.353547	23.582000	-5.780000
	118.349769	1447.349758	23.580000	-5.830000
	118.449775	1447.354811	23.592000	-5.760000
	118.549781	1447.357337	23.570000	-5.780000
	118.649786	1447.367442	23.574000	-5.720000
	118.749792	1447.378810	23.596000	-5.710000
	118.849798	1447.381336	23.592000	-5.780000
	118.949804	1447.381336	23.592000	-5.780000
	119.049809	1447.386388	23.552000	-5.760000
	119.149815	1447.391441	23.556000	-5.760000
	119.249821	1447.396493	23.548000	-5.760000
	119.349826	1447.395230	23.542000	-5.810000
	119.449832	1447.400282	23.562000	-5.760000
	119.549838	1447.400282	23.566000	-5.800000
	119.649844	1447.401546	23.572000	-5.790000
	119.749849	1447.401546	23.552000	-5.800000
	119.849855	1447.401546	23.552000	-5.800000
	119.949861	1447.406598	23.556000	-5.760000
	120.049867	1447.410387	23.556000	-5.770000
	120.149872	1447.401546	23.542000	-5.870000
	120.249878	1447.400283	23.550000	-5.810000
	120.349884	1447.393968	23.526000	-5.850000
	120.453889	1447.378811	23.552000	-5.920000
	120.549895	1447.373759	23.590000	-5.840000
	120.651901	1447.375022	23.556000	-5.790000
	120.749907	1447.366181	23.564000	-5.870000
	120.849912	1447.366181	23.564000	-5.870000
	120.999921	1447.372496	23.566000	-5.750000
	121.099926	1447.364918	23.570000	-5.860000
	121.199932	1447.361129	23.584000	-5.830000
	121.299938	1447.356077	23.584000	-5.840000
	121.399944	1447.362392	23.566000	-5.750000
	121.499949	1447.361129	23.586000	-5.810000
	121.599955	1447.354814	23.594000	-5.850000
	121.699961	1447.358603	23.554000	-5.770000
	121.799967	1447.359866	23.606000	-5.790000
	121.899972	1447.359866	23.606000	-5.790000
	121.999978	1447.362392	23.598000	-5.780000
	122.099984	1447.357340	23.596000	-5.840000
	122.199989	1447.361129	23.596000	-5.770000
	122.301995	1447.366182	23.590000	-5.760000
	122.400001	1447.369971	23.584000	-5.770000
	122.500007	1447.371234	23.576000	-5.790000
	122.600012	1447.373760	23.574000	-5.780000
	122.700018	1447.380076	23.570000	-5.750000
	122.802024	1447.382602	23.590000	-5.780000
	122.900030	1447.382602	23.590000	-5.780000
	123.000035	1447.391444	23.574000	-5.730000
	123.100041	1447.392707	23.564000	-5.790000
	123.200047	1447.392707	23.564000	-5.800000
	123.300052	1447.385129	23.562000	-5.860000
	123.400058	1447.395234	23.540000	-5.720000
	123.500064	1447.405339	23.604000	-5.720000
	123.600070	1447.404076	23.568000	-5.810000
	123.700075	1447.402812	23.560000	-5.810000
	123.800081	1447.402812	23.560000	-5.810000
	123.900087	1447.400286	23.562000	-5.820000
	124.000093	1447.397760	23.554000	-5.820000
	124.100098	1447.400286	23.546000	-5.780000
	124.200104	1447.400286	23.554000	-5.800000
	124.300109	1447.397760	23.526000	-5.820000
	124.400115	1447.405339	23.548000	-5.740000
	124.500121	1447.396497	23.522000	-5.870000
	124.600127	1447.400287	23.562000	-5.770000
	124.701133	1447.404076	23.576000	-5.770000
	124.800138	1447.404076	23.576000	-5.770000
	124.900144	1447.320732	23.234000	-6.460000
	125.000150	1447.321995	23.588000	-5.790000
	125.100155	1447.333363	23.544000	-5.710000
	125.200161	1447.337152	23.562000	-5.770000
	125.300167	1447.340941	23.554000	-5.770000
	125.400173	1447.347256	23.564000	-5.750000
	125.500178	1447.356098	23.542000	-5.730000
	125.600184	1447.368729	23.554000	-5.700000
	125.700190	1447.375045	23.564000	-5.750000
	125.800195	1447.375045	23.564000	-5.750000
	125.900201	1447.375045	23.574000	-5.800000
	126.000207	1447.372518	23.536000	-5.820000
	126.100213	1447.372518	23.538000	-5.800000
	126.200218	1447.372518	23.550000	-5.800000
	126.300224	1447.371255	23.544000	-5.810000
	126.400230	1447.366203	23.534000	-5.840000
	126.500236	1447.369992	23.560000	-5.770000
	126.601241	1447.367466	23.546000	-5.820000
	126.700247	1447.363677	23.544000	-5.830000
	126.800252	1447.363677	23.544000	-5.830000
	126.900259	1447.361151	23.566000	-5.820000
	127.000264	1447.368730	23.548000	-5.740000
	127.100270	1447.369993	23.568000	-5.790000
	127.201276	1447.371256	23.544000	-5.790000
	127.300281	1447.368730	23.542000	-5.820000
	127.400287	1447.502692	23.194000	-4.740000
	127.500293	1447.472379	23.544000	-6.040000
	127.600298	1447.536816	23.630000	-5.290000
	127.700304	1447.483770	23.920000	-6.220000
	127.800310	1447.483770	23.920000	-6.220000
	127.900316	1447.438302	23.554000	-6.160000
	128.000321	1447.426934	23.564000	-5.890000
	128.100327	1447.438303	23.816000	-5.710000
	128.200333	1447.424409	23.586000	-5.910000
	128.300338	1447.414304	23.564000	-5.880000
	128.400344	1447.397885	23.562000	-5.930000
	128.500350	1447.370099	23.572000	-6.020000
	128.600356	1447.348629	23.558000	-5.970000
	128.700361	1447.346103	23.566000	-5.820000
	128.800367	1447.337262	23.548000	-5.870000
	128.900373	1447.337262	23.548000	-5.870000
	129.000379	1447.332210	23.544000	-5.840000
	129.100384	1447.338525	23.536000	-5.750000
	129.200390	1447.327158	23.494000	-5.890000
	129.300395	1447.322106	23.464000	-5.840000
	129.400402	1447.324632	23.486000	-5.780000
	129.500407	1447.322106	23.482000	-5.820000
	129.600413	1447.313265	23.442000	-5.870000
	129.700418	1447.290532	23.434000	-5.980000
	129.800424	1447.277903	23.456000	-5.900000
	129.900430	1447.267799	23.480000	-5.880000
	130.000436	1447.256433	23.480000	-5.890000
	130.100441	1447.255170	23.482000	-5.810000
	130.200447	1447.252644	23.474000	-5.820000
	130.300453	1447.243804	23.442000	-5.870000
	130.400459	1447.228649	23.458000	-5.920000
	130.500464	1447.228649	23.458000	-5.920000
	130.600470	1447.219809	23.424000	-5.870000
	130.700476	1447.208443	23.434000	-5.890000
	130.800481	1447.198340	23.466000	-5.880000
	130.900487	1447.194551	23.444000	-5.830000
	131.000493	1447.193288	23.458000	-5.810000
	131.100499	1447.193288	23.454000	-5.800000
	131.200504	1447.202129	23.450000	-5.730000
	131.300510	1447.204654	23.442000	-5.780000
	131.404516	1447.207180	23.452000	-5.780000
	131.499521	1447.209706	23.436000	-5.780000
	131.599527	1447.199603	23.426000	-5.880000
	131.699533	1447.198340	23.450000	-5.810000
	131.799539	1447.190763	23.466000	-5.860000
	131.899544	1447.190763	23.466000	-5.860000
	131.999550	1447.186974	23.480000	-5.830000
	132.099555	1447.192026	23.462000	-5.760000
	132.199562	1447.194552	23.476000	-5.780000
	132.299567	1447.202129	23.466000	-5.740000
	132.399573	1447.205918	23.454000	-5.770000
	132.499578	1447.199604	23.434000	-5.850000
	132.601584	1447.197078	23.450000	-5.820000
	132.699590	1447.192026	23.474000	-5.840000
	132.799596	1447.190763	23.494000	-5.810000
	132.899601	1447.200867	23.466000	-5.720000
	132.999607	1447.204656	23.458000	-5.770000
	133.099613	1447.207182	23.438000	-5.780000
	133.199619	1447.200867	23.436000	-5.850000
	133.299624	1447.194553	23.468000	-5.850000
	133.399630	1447.184450	23.450000	-5.880000
	133.499636	1447.180661	23.456000	-5.830000
	133.599641	1447.180661	23.456000	-5.830000
	133.699647	1447.174347	23.476000	-5.850000
	133.799653	1447.179398	23.476000	-5.760000
	133.899659	1447.186976	23.446000	-5.740000
	133.999664	1447.192028	23.444000	-5.760000
	134.099670	1447.190765	23.434000	-5.810000
	134.199676	1447.188239	23.434000	-5.820000
	134.299682	1447.183188	23.448000	-5.840000
	134.399687	1447.181925	23.472000	-5.810000
	134.499693	1447.181925	23.450000	-5.800000
	134.599699	1447.192028	23.466000	-5.720000
	134.699705	1447.192028	23.486000	-5.800000
	134.799710	1447.199606	23.430000	-5.740000
	134.899716	1447.199606	23.428000	-5.800000
	134.999722	1447.199606	23.428000	-5.800000
	135.099727	1447.192029	23.454000	-5.860000
	135.199733	1447.180663	23.468000	-5.890000
	135.299739	1447.176874	23.464000	-5.830000
	135.399745	1447.179400	23.462000	-5.780000
	135.499750	1447.180663	23.428000	-5.790000
	135.599756	1447.192029	23.456000	-5.710000
	135.699762	1447.188241	23.416000	-5.830000
	135.799767	1447.181926	23.418000	-5.850000
	135.899773	1447.176875	23.442000	-5.840000
	135.999779	1447.174349	23.464000	-5.820000
	136.099784	1447.171823	23.466000	-5.820000
	136.199790	1447.181927	23.470000	-5.720000
	136.299796	1447.179401	23.464000	-5.820000
	136.399802	1447.185716	23.454000	-5.750000
	136.499807	1447.185716	23.454000	-5.750000
	136.599813	1447.181927	23.444000	-5.830000
	136.699819	1447.180664	23.438000	-5.810000
	136.799825	1447.178138	23.440000	-5.820000
	136.899830	1447.178138	23.466000	-5.800000
	136.999836	1447.178138	23.458000	-5.800000
	137.099842	1447.180664	23.472000	-5.780000
	137.199848	1447.181927	23.468000	-5.790000
	137.299853	1447.184453	23.432000	-5.780000
	137.399859	1447.188242	23.448000	-5.770000
	137.499865	1447.179402	23.456000	-5.870000
	137.599870	1447.169299	23.440000	-5.880000
	137.699876	1447.168036	23.490000	-5.810000
	137.799882	1447.165510	23.480000	-5.820000
	137.899888	1447.178140	23.446000	-5.700000
	137.999893	1447.189506	23.468000	-5.710000
	138.099899	1447.189506	23.468000	-5.710000
	138.199905	1447.179403	23.428000	-5.880000
	138.299911	1447.174352	23.468000	-5.840000
	138.399916	1447.165512	23.476000	-5.870000
	138.499922	1447.168037	23.458000	-5.780000
	138.599927	1447.171826	23.458000	-5.770000
	138.699934	1447.174352	23.416000	-5.780000
	138.799939	1447.175615	23.478000	-5.790000
	138.899945	1447.160461	23.476000	-5.920000
	139.002951	1447.164250	23.484000	-5.770000
	139.099956	1447.165512	23.462000	-5.790000
	139.199962	1447.175616	23.468000	-5.720000
	139.299968	1447.168039	23.466000	-5.860000
	139.399973	1447.159199	23.424000	-5.870000
	139.499979	1447.159199	23.424000	-5.870000
	139.599985	1447.152884	23.470000	-5.850000
	139.699990	1447.150359	23.472000	-5.820000
	139.799996	1447.160462	23.456000	-5.720000
	139.900002	1447.169303	23.450000	-5.730000
	140.001008	1447.164251	23.430000	-5.840000
	140.100013	1447.165514	23.474000	-5.790000
	140.200019	1447.165514	23.484000	-5.800000
	140.300025	1447.173092	23.468000	-5.740000
	140.400031	1447.176880	23.424000	-5.770000
	140.500036	1447.178143	23.440000	-5.790000
	140.600042	1447.291858	22.910000	-4.900000
	140.700047	1447.250185	23.298000	-6.130000
	140.800054	1447.229979	23.552000	-5.960000
	140.900059	1447.241346	23.350000	-5.710000
	141.000065	1447.232505	23.604000	-5.870000
	141.100070	1447.232505	23.604000	-5.870000
	141.200076	1447.255240	23.244000	-5.620000
	141.300082	1447.256503	23.484000	-5.790000
	141.400088	1447.170643	23.500000	-6.480000
	141.500093	1447.161803	23.442000	-5.870000
	141.600099	1447.135284	23.466000	-6.010000
	141.700105	1447.128970	23.500000	-5.850000
	141.800111	1447.135285	23.488000	-5.750000
	141.900116	1447.144125	23.444000	-5.730000
	142.000122	1447.144125	23.450000	-5.800000
	142.100128	1447.136548	23.442000	-5.860000
	142.200133	1447.144125	23.474000	-5.740000
	142.300139	1447.144125	23.474000	-5.740000
	142.400145	1447.151703	23.478000	-5.740000
	142.500151	1447.165595	23.476000	-5.690000
	142.600156	1447.163069	23.438000	-5.820000
	142.700162	1447.171910	23.386000	-5.730000
	142.800168	1447.166858	23.468000	-5.840000
	142.900174	1447.166858	23.466000	-5.800000
	143.000179	1447.166858	23.426000	-5.800000
	143.100185	1447.158018	23.440000	-5.870000
	143.200191	1447.147916	23.484000	-5.880000
	143.300196	1447.155493	23.486000	-5.740000
	143.400202	1447.168122	23.438000	-5.700000
	143.500208	1447.159282	23.434000	-5.870000
	143.600214	1447.149180	23.438000	-5.880000
	143.700219	1447.149180	23.464000	-5.800000
	143.800225	1447.160546	23.440000	-5.710000
	143.900231	1447.154232	23.438000	-5.850000
	144.000237	1447.154232	23.438000	-5.850000
	144.100242	1447.147918	23.454000	-5.850000
	144.200248	1447.147918	23.444000	-5.800000
	144.300253	1447.155495	23.472000	-5.740000
	144.400259	1447.159284	23.446000	-5.770000
	144.500265	1447.161809	23.482000	-5.780000
	144.600271	1447.154232	23.478000	-5.860000
	144.700276	1447.121401	23.436000	-6.060000
	144.800282	1447.152976	23.380000	-5.550000
	144.900288	1447.123932	23.128000	-6.030000
	145.000294	1447.117618	23.464000	-5.850000
	145.100299	1447.127721	23.482000	-5.720000
	145.200305	1447.135299	23.436000	-5.740000
	145.300311	1447.139087	23.486000	-5.770000
	145.400317	1447.139087	23.486000	-5.770000
	145.500322	1447.128985	23.466000	-5.880000
	145.600328	1447.132773	23.508000	-5.770000
	145.700334	1447.146666	23.446000	-5.690000
	145.800339	1447.140351	23.460000	-5.850000
	145.900345	1447.132774	23.470000	-5.860000
	146.000351	1447.135300	23.480000	-5.780000
	146.100357	1447.137826	23.442000	-5.780000
	146.200362	1447.139089	23.450000	-5.790000
	146.300368	1447.134037	23.476000	-5.840000
	146.400374	1447.171929	23.730000	-5.500000
	146.500380	1447.185821	23.328000	-5.690000
	146.600385	1447.165616	23.534000	-5.960000
	146.700391	1447.149199	23.474000	-5.930000
	146.800396	1447.155514	23.500000	-5.750000
	146.900402	1447.230046	23.482000	-5.210000
	147.000408	1447.230046	23.482000	-5.210000
	147.100414	1447.183323	23.372000	-6.170000
	147.200419	1447.174483	23.496000	-5.870000
	147.300425	1447.170695	23.512000	-5.830000
	147.400431	1447.164380	23.456000	-5.850000
	147.500437	1447.150489	23.464000	-5.910000
	147.600442	1447.137861	23.494000	-5.900000
	147.700448	1447.134072	23.494000	-5.830000
	147.800454	1447.127758	23.440000	-5.850000
	147.900459	1447.127758	23.452000	-5.800000
	148.000465	1447.319885	22.184000	-4.280000
	148.100471	1502.747508	0.328000	75.330000
	148.200477	1589.142577	0.292000	77.770000
	148.300482	1620.156108	0.378000	68.480000
	148.400488	1651.682074	0.530000	68.440000
	148.500494	1621.852374	5.542000	-81.650000
	148.603500	1621.852374	5.542000	-81.650000
	148.700505	1596.240965	6.404000	-79.530000
	148.800511	1574.733478	7.316000	-76.700000
	148.900517	1555.957436	8.386000	-74.270000
	148.999522	1539.917113	9.536000	-71.090000
	149.099528	1526.155501	10.814000	-67.670000
	149.199534	1514.411527	12.178000	-63.800000
	149.299540	1504.399029	13.596000	-59.620000
	149.399545	1495.853338	14.952000	-55.260000
	149.500551	1488.563459	16.288000	-50.770000
	149.599557	1482.296079	17.618000	-46.500000
	149.699563	1477.028142	18.752000	-41.690000
	149.799568	1472.518937	19.720000	-37.600000
	149.899574	1468.674703	20.586000	-33.680000
	149.999579	1465.417107	21.228000	-29.960000
	150.099586	1465.417107	21.228000	-29.960000
	150.199591	1462.636966	21.770000	-26.760000
	150.299597	1460.285450	22.186000	-23.760000
	150.399602	1458.283988	22.500000	-21.230000
	150.502608	1456.589072	22.756000	-18.960000
	150.599614	1455.159340	22.912000	-16.960000
	150.699620	1453.952037	23.052000	-15.260000
	150.799625	1452.924920	23.162000	-13.870000
	150.899631	1452.049733	23.234000	-12.690000
	150.999637	1451.314131	23.284000	-11.600000
	151.099642	1450.685731	23.328000	-10.760000
	151.199648	1450.143903	23.378000	-10.080000
	151.299654	1449.692242	23.408000	-9.370000
	151.399660	1449.305272	23.410000	-8.860000
	151.499665	1448.971524	23.460000	-8.440000
	151.599671	1448.693472	23.414000	-8.000000
	151.699677	1448.693472	23.414000	-8.000000
	151.799683	1448.454644	23.440000	-7.690000
	151.899688	1448.249963	23.410000	-7.420000
	151.999694	1448.100886	23.468000	-6.980000
	152.099699	1447.969506	23.448000	-6.840000
	152.199706	1447.852029	23.446000	-6.730000
	152.299711	1447.745927	23.422000	-6.640000
	152.402717	1447.654987	23.446000	-6.520000
	152.499722	1447.585519	23.468000	-6.350000
	152.599728	1447.529945	23.454000	-6.240000
	152.699734	1447.481950	23.450000	-6.180000
	152.799740	1447.427643	23.442000	-6.230000
	152.899745	1447.382178	23.464000	-6.160000
	152.999751	1447.363233	23.488000	-5.950000
	153.099757	1447.343025	23.442000	-5.960000
	153.199763	1447.320292	23.438000	-5.980000
	153.299768	1447.320292	23.438000	-5.980000
	153.399774	1447.291245	23.466000	-6.030000
	153.499780	1447.274827	23.480000	-5.930000
	153.599785	1447.273564	23.458000	-5.810000
	153.699791	1447.262198	23.440000	-5.890000
	153.799797	1447.249568	23.480000	-5.900000
	153.899803	1447.240728	23.496000	-5.870000
	153.999808	1447.233150	23.462000	-5.860000
	154.099814	1447.231887	23.442000	-5.810000
	154.199820	1447.223047	23.462000	-5.870000
	154.301826	1447.225573	23.492000	-5.780000
	154.399831	1447.228099	23.468000	-5.780000
	154.499837	1447.229362	23.444000	-5.790000
	154.599843	1447.220521	23.464000	-5.870000
	154.699848	1447.210418	23.486000	-5.880000
	154.799854	1447.210418	23.486000	-5.880000
	154.899860	1447.209155	23.460000	-5.810000
	154.999866	1447.214207	23.434000	-5.760000
	155.099871	1447.210418	23.452000	-5.830000
	155.199877	1447.202841	23.472000	-5.860000
	155.299883	1447.204104	23.466000	-5.790000
	155.399889	1447.202841	23.448000	-5.810000
	155.499894	1447.201578	23.478000	-5.810000
	155.599900	1447.195264	23.494000	-5.850000
	155.699905	1447.199053	23.466000	-5.770000
	155.799911	1447.204104	23.432000	-5.760000
	155.899917	1447.195264	23.444000	-5.870000
	155.999923	1447.195264	23.482000	-5.800000
	156.099928	1447.209157	23.502000	-5.690000
	156.200934	1447.205368	23.440000	-5.830000
	156.299940	1447.199054	23.438000	-5.850000
	156.399946	1447.199054	23.438000	-5.850000
	156.499951	1447.199054	23.464000	-5.800000
	156.599957	1447.201579	23.452000	-5.780000
	156.699963	1447.212946	23.446000	-5.710000
	156.799969	1447.202843	23.446000	-5.880000
	156.899974	1447.201580	23.474000	-5.810000
	156.999980	1447.202843	23.474000	-5.790000
	157.099986	1447.211684	23.470000	-5.730000
	157.199991	1447.212947	23.426000	-5.790000
	157.299997	1447.211684	23.480000	-5.810000
	157.400003	1447.207895	23.496000	-5.830000
	157.500009	1447.215473	23.456000	-5.740000
	157.600014	1447.211684	23.438000	-5.830000
	157.700020	1447.207895	23.458000	-5.830000
	157.800026	1447.204107	23.490000	-5.830000
	157.900032	1447.221789	23.468000	-5.660000
	158.000037	1447.221789	23.468000	-5.660000
	158.100043	1447.218000	23.444000	-5.830000
	158.200048	1447.218000	23.428000	-5.800000
	158.300054	1447.202845	23.484000	-5.920000
	158.400060	1447.209160	23.470000	-5.750000
	158.500066	1447.221790	23.482000	-5.700000
	158.600071	1447.209161	23.482000	-5.900000
	158.700077	1447.206635	23.484000	-5.820000
	158.800083	1447.214213	23.472000	-5.740000
	158.900089	1447.219265	23.442000	-5.760000
	159.000094	1447.202848	23.466000	-5.930000
	159.100100	1447.199059	23.488000	-5.830000
	159.200106	1447.204111	23.456000	-5.760000
	159.300111	1447.204111	23.446000	-5.800000
	159.400117	1447.188956	23.490000	-5.920000
	159.500123	1447.197797	23.490000	-5.730000
	159.600129	1447.197797	23.490000	-5.730000
	159.700134	1447.194008	23.450000	-5.830000
	159.800140	1447.192745	23.442000	-5.810000
	159.900146	1447.185168	23.492000	-5.860000
	160.000152	1447.190220	23.466000	-5.760000
	160.100157	1447.202850	23.466000	-5.700000
	160.200163	1447.194009	23.476000	-5.870000
	160.300169	1447.194009	23.476000	-5.800000
	160.400175	1447.200324	23.472000	-5.750000
	160.500180	1447.209165	23.442000	-5.730000
	160.600186	1447.200325	23.482000	-5.870000
	160.700191	1447.202850	23.512000	-5.780000
	160.800197	1447.207902	23.464000	-5.760000
	160.900203	1447.200325	23.428000	-5.860000
	161.000209	1447.196536	23.500000	-5.830000
	161.100214	1447.200325	23.484000	-5.770000
	161.200220	1447.200325	23.484000	-5.770000
	161.300226	1447.202851	23.466000	-5.780000
	161.400232	1447.197799	23.456000	-5.840000
	161.500237	1447.207903	23.462000	-5.720000
	161.600243	1447.218007	23.480000	-5.720000
	161.700249	1447.221796	23.464000	-5.770000
	161.800254	1447.211692	23.482000	-5.880000
	161.900260	1447.224322	23.520000	-5.700000
	162.000266	1447.224322	23.434000	-5.800000
	162.100272	1447.216745	23.468000	-5.860000
	162.200277	1447.206642	23.488000	-5.880000
	162.300283	1447.216745	23.486000	-5.720000
	162.400289	1447.215482	23.448000	-5.810000
	162.500295	1447.206642	23.466000	-5.870000
	162.600300	1447.206642	23.466000	-5.870000
	162.700306	1447.210431	23.494000	-5.770000
	162.800312	1447.216746	23.472000	-5.750000
	162.900317	1447.210431	23.462000	-5.850000
	163.000323	1447.218009	23.522000	-5.740000
	163.100329	1447.225587	23.458000	-5.740000
	163.200335	1447.221798	23.448000	-5.830000
	163.300340	1447.206644	23.472000	-5.920000
	163.400346	1447.205381	23.500000	-5.810000
	163.500352	1447.209170	23.444000	-5.770000
	163.600358	1447.202855	23.448000	-5.850000
	163.700363	1447.186438	23.512000	-5.930000
	163.800369	1447.192753	23.464000	-5.750000
	163.900374	1447.199067	23.436000	-5.750000
	164.000381	1447.187701	23.470000	-5.890000
	164.100386	1447.192753	23.494000	-5.760000
	164.200392	1447.200331	23.470000	-5.740000
	164.300397	1447.200331	23.470000	-5.740000
	164.400403	1447.200331	23.456000	-5.800000
	164.500409	1447.197805	23.488000	-5.820000
	164.600415	1447.207909	23.502000	-5.720000
	164.700420	1447.211698	23.434000	-5.770000
	164.802426	1447.206646	23.470000	-5.840000
	164.900432	1447.197806	23.490000	-5.870000
	165.000438	1447.206646	23.502000	-5.730000
	165.100443	1447.205384	23.464000	-5.810000
	165.200449	1447.197806	23.480000	-5.860000
	165.300455	1447.200332	23.496000	-5.780000
	165.400460	1447.206647	23.486000	-5.750000
	165.500466	1447.197807	23.462000	-5.870000
	165.600472	1447.199069	23.500000	-5.790000
	165.700478	1447.205384	23.506000	-5.750000
	165.800483	1447.205384	23.506000	-5.750000
	165.900489	1447.214225	23.462000	-5.730000
	166.000495	1447.209173	23.492000	-5.840000
	166.100501	1447.211699	23.498000	-5.780000
	166.200506	1447.216751	23.466000	-5.760000
	166.300512	1447.210436	23.460000	-5.850000
	166.400517	1447.218014	23.490000	-5.740000
	166.499523	1447.223066	23.494000	-5.760000
	166.599529	1447.214226	23.448000	-5.870000
	166.699535	1447.211700	23.466000	-5.820000
	166.799541	1447.209174	23.524000	-5.820000
	166.899546	1447.209174	23.450000	-5.800000
	166.999552	1447.210437	23.460000	-5.790000
	167.099557	1447.202860	23.514000	-5.860000
	167.199564	1447.202860	23.514000	-5.860000
	167.299569	1447.210437	23.486000	-5.740000
	167.399575	1447.212963	23.452000	-5.780000
	167.499580	1447.209175	23.498000	-5.830000
	167.599586	1447.209175	23.488000	-5.800000
	167.699592	1447.212963	23.458000	-5.770000
	167.799598	1447.197809	23.450000	-5.920000
	167.899603	1447.196546	23.490000	-5.810000
	167.999609	1447.200335	23.502000	-5.770000
	168.099615	1447.200335	23.436000	-5.800000
	168.199621	1447.202861	23.468000	-5.780000
	168.299626	1447.209175	23.494000	-5.750000
	168.399632	1447.219279	23.460000	-5.720000
	168.499638	1447.206650	23.438000	-5.900000
	168.601644	1447.204125	23.510000	-5.820000
	168.699649	1447.204125	23.486000	-5.800000
	168.799655	1447.200336	23.416000	-5.830000
	168.899661	1447.200336	23.416000	-5.830000
	168.999666	1447.199073	23.458000	-5.810000
	169.149675	1447.202862	23.480000	-5.770000
	169.249681	1447.209176	23.430000	-5.750000
	169.349686	1447.196548	23.448000	-5.900000
	169.449692	1447.201600	23.508000	-5.760000
	169.549698	1447.207914	23.478000	-5.750000
	169.649704	1447.206651	23.462000	-5.810000
	169.749709	1447.204126	23.502000	-5.820000
	169.849715	1447.223071	23.468000	-5.650000
	169.949720	1447.223071	23.458000	-5.800000
	170.049726	1447.214230	23.468000	-5.870000
	170.149732	1447.209179	23.480000	-5.840000
	170.249738	1447.212968	23.456000	-5.770000
	170.349743	1447.196550	23.464000	-5.930000
	170.449749	1447.201602	23.502000	-5.760000
	170.549755	1447.201602	23.502000	-5.760000
	170.649761	1447.211706	23.482000	-5.720000
	170.749766	1447.204128	23.484000	-5.860000
	170.849772	1447.199077	23.480000	-5.840000
	170.949778	1447.207918	23.462000	-5.730000
	171.049784	1447.204129	23.466000	-5.830000
	171.149789	1447.205392	23.474000	-5.790000
	171.249795	1447.210444	23.484000	-5.760000
	171.349801	1447.210444	23.444000	-5.800000
	171.449806	1447.201603	23.510000	-5.870000
	171.549812	1447.195289	23.486000	-5.850000
	171.649818	1447.200341	23.468000	-5.760000
	171.749824	1447.194026	23.484000	-5.850000
	171.849829	1447.192763	23.486000	-5.810000
	171.949835	1447.201604	23.478000	-5.730000
	172.049841	1447.201604	23.478000	-5.730000
	172.149847	1447.200341	23.474000	-5.810000
	172.249852	1447.202867	23.520000	-5.780000
	172.349858	1447.206656	23.462000	-5.770000
	172.449863	1447.197815	23.494000	-5.870000
	172.549870	1447.188975	23.506000	-5.870000
	172.649875	1447.196553	23.468000	-5.740000
	172.749881	1447.202868	23.490000	-5.750000
	172.849886	1447.192765	23.480000	-5.880000
	172.949892	1447.200342	23.518000	-5.740000
	173.049898	1447.196554	23.476000	-5.830000
	173.149904	1447.187713	23.482000	-5.870000
	173.249909	1447.195291	23.492000	-5.740000
	173.349915	1447.200343	23.482000	-5.760000
	173.449921	1447.187714	23.450000	-5.900000
	173.549927	1447.191503	23.482000	-5.770000
	173.649932	1447.191503	23.482000	-5.770000
	173.749938	1447.202870	23.726000	-5.710000
	173.851944	1447.226867	23.464000	-5.610000
	173.949949	1447.226867	23.506000	-5.800000
	174.049955	1447.228130	23.474000	-5.790000
	174.149961	1447.220553	23.472000	-5.860000
	174.249967	1447.218027	23.508000	-5.820000
	174.349972	1447.221816	23.474000	-5.770000
	174.449978	1447.216764	23.464000	-5.840000
	174.549984	1447.205398	23.486000	-5.890000
	174.649990	1447.218028	23.524000	-5.700000
	174.749995	1447.221817	23.466000	-5.770000
	174.850001	1447.214239	23.474000	-5.860000
	174.950006	1447.212976	23.494000	-5.810000
	175.050013	1447.220554	23.476000	-5.740000
	175.150018	1447.220554	23.476000	-5.740000
	175.250024	1447.206662	23.476000	-5.910000
	175.350029	1447.202874	23.468000	-5.830000
	175.450035	1447.210451	23.470000	-5.740000
	175.550041	1447.204137	23.470000	-5.850000
	175.650047	1447.202874	23.498000	-5.810000
	175.750052	1447.215504	23.500000	-5.700000
	175.850058	1447.211715	23.464000	-5.830000
	175.950064	1447.205401	23.494000	-5.850000
	176.050070	1447.207926	23.482000	-5.780000
	176.150075	1447.211715	23.470000	-5.770000
	176.250081	1447.205401	23.506000	-5.850000
	176.300084	1447.205401	23.500000	-5.800000
	176.450092	1447.207927	23.490000	-5.780000
	176.550098	1447.199086	23.502000	-5.870000
	176.650104	1447.207927	23.502000	-5.730000
	176.750110	1447.209190	23.448000	-5.790000
	176.850115	1447.201613	23.494000	-5.860000
	176.950121	1447.201613	23.494000	-5.860000
	177.050127	1447.209190	23.498000	-5.740000
	177.150133	1447.214242	23.464000	-5.760000
	177.250138	1447.210453	23.506000	-5.830000
	177.350144	1447.212979	23.532000	-5.780000
	177.450150	1447.206665	23.450000	-5.850000
	177.550156	1447.197825	23.490000	-5.870000
	177.650161	1447.199088	23.494000	-5.790000
	177.750167	1447.201613	23.466000	-5.780000
	177.850173	1447.188985	23.496000	-5.900000
	177.950178	1447.196562	23.514000	-5.740000
	178.050184	1447.196562	23.468000	-5.800000
	178.150190	1447.191511	23.488000	-5.840000
	178.250196	1447.191511	23.498000	-5.800000
	178.350201	1447.199088	23.468000	-5.740000
	178.450207	1447.195300	23.488000	-5.830000
	178.550212	1447.194037	23.486000	-5.810000
	178.650218	1447.194037	23.486000	-5.810000
	178.750224	1447.201615	23.482000	-5.740000
	178.850230	1447.194037	23.476000	-5.860000
	178.950235	1447.190249	23.490000	-5.830000
	179.050241	1447.197826	23.462000	-5.740000
	179.150247	1447.197826	23.494000	-5.800000
	179.250253	1447.190249	23.500000	-5.860000
	179.350258	1447.197827	23.486000	-5.740000
	179.450264	1447.191512	23.496000	-5.850000
	179.550270	1447.188986	23.506000	-5.820000
	179.650276	1447.191512	23.482000	-5.780000
	179.750281	1447.191512	23.472000	-5.800000
	179.850287	1447.186461	23.518000	-5.840000
	179.950293	1447.194038	23.478000	-5.740000
	180.050298	1447.190250	23.464000	-5.830000
	180.150304	1447.190250	23.464000	-5.830000
	180.250310	1447.186461	23.502000	-5.830000
	180.350316	1447.187724	23.522000	-5.790000
	180.450321	1447.192775	23.488000	-5.760000
	180.550327	1447.185198	23.488000	-5.860000
	180.650333	1447.195302	23.518000	-5.720000
	180.750339	1447.194039	23.482000	-5.810000
	180.850344	1447.190250	23.484000	-5.830000
	180.950350	1447.190250	23.506000	-5.800000
	181.050355	1447.191513	23.472000	-5.790000
	181.150362	1447.175096	23.488000	-5.930000
	181.250367	1447.177622	23.516000	-5.780000
	181.350373	1447.181411	23.478000	-5.770000
	181.450378	1447.171308	23.494000	-5.880000
	181.550384	1447.180148	23.502000	-5.730000
	181.650390	1447.178885	23.502000	-5.810000
	181.750396	1447.178885	23.492000	-5.800000
	181.850401	1447.178885	23.492000	-5.800000
	181.950407	1447.177623	23.520000	-5.810000
	182.050413	1447.182674	23.482000	-5.760000
	182.150418	1447.180148	23.464000	-5.820000
	182.250424	1447.177623	23.502000	-5.820000
	182.350430	1447.195304	23.492000	-5.660000
	182.450436	1447.185201	23.466000	-5.880000
	182.550441	1447.180150	23.512000	-5.840000
	182.650447	1447.188990	23.494000	-5.730000
	182.750453	1447.185202	23.486000	-5.830000
	182.850459	1447.173836	23.532000	-5.890000
	182.950464	1447.180151	23.502000	-5.750000
	183.050470	1447.176362	23.466000	-5.830000
	183.150476	1447.171311	23.510000	-5.840000
	183.250482	1447.172573	23.506000	-5.790000
	183.350487	1447.172573	23.490000	-5.800000
	183.450493	1447.173836	23.504000	-5.790000
	183.550498	1447.177625	23.536000	-5.770000
	183.650504	1447.177625	23.536000	-5.770000
	183.750510	1447.178888	23.478000	-5.790000
	183.850516	1447.175099	23.482000	-5.830000
	183.949522	1447.175099	23.514000	-5.800000
	184.049527	1447.183940	23.496000	-5.730000
	184.149533	1447.171311	23.472000	-5.900000
	184.249538	1447.175100	23.498000	-5.770000
	184.349545	1447.182678	23.502000	-5.740000
	184.449550	1447.181415	23.466000	-5.810000
	184.549556	1447.175100	23.504000	-5.850000
	184.649561	1447.171312	23.510000	-5.830000
	184.749567	1447.177626	23.460000	-5.750000
	184.849573	1447.173838	23.524000	-5.830000
	184.949579	1447.171312	23.492000	-5.820000
	185.049584	1447.175101	23.472000	-5.770000
	185.149590	1447.172575	23.490000	-5.820000
	185.249596	1447.172575	23.490000	-5.820000
	185.349601	1447.170049	23.526000	-5.820000
	185.449607	1447.172575	23.486000	-5.780000
	185.549613	1447.167523	23.480000	-5.840000
	185.649619	1447.157421	23.534000	-5.880000
	185.749624	1447.173839	23.518000	-5.670000
	185.849630	1447.180154	23.466000	-5.750000
	185.949636	1447.176365	23.512000	-5.830000
	186.049642	1447.177628	23.504000	-5.790000
	186.149647	1447.185206	23.468000	-5.740000
	186.249653	1447.173840	23.498000	-5.890000
	186.349658	1447.177629	23.518000	-5.770000
	186.449665	1447.183943	23.498000	-5.750000
	186.549670	1447.175103	23.480000	-5.870000
	186.649676	1447.171315	23.502000	-5.830000
	186.749681	1447.171315	23.502000	-5.830000
	186.849687	1447.181418	23.494000	-5.720000
	186.949693	1447.175104	23.490000	-5.850000
	187.049699	1447.172578	23.482000	-5.820000
	187.149704	1447.176367	23.526000	-5.770000
	187.249710	1447.180155	23.486000	-5.770000
	187.349716	1447.175104	23.480000	-5.840000
	187.449722	1447.166264	23.508000	-5.870000
	187.549727	1447.176367	23.486000	-5.720000
	187.649733	1447.175104	23.498000	-5.810000
	187.749739	1447.168790	23.502000	-5.850000
	187.849744	1447.172579	23.530000	-5.770000
	187.949750	1447.167527	23.494000	-5.840000
	188.049756	1447.159950	23.486000	-5.860000
	188.150762	1447.156162	23.544000	-5.830000
	188.249767	1447.170054	23.506000	-5.690000
	188.349773	1447.170054	23.506000	-5.690000
	188.449779	1447.165002	23.462000	-5.840000
	188.549785	1447.161214	23.492000	-5.830000
	188.649790	1447.162477	23.514000	-5.790000
	188.749796	1447.162477	23.494000	-5.800000
	188.849802	1447.152374	23.502000	-5.880000
	188.949807	1447.147323	23.544000	-5.840000
	189.049813	1447.143534	23.500000	-5.830000
	189.149819	1447.138483	23.490000	-5.840000
	189.249825	1447.132168	23.520000	-5.850000
	189.349830	1447.139746	23.532000	-5.740000
	189.449836	1447.141009	23.496000	-5.790000
	189.549842	1447.135957	23.500000	-5.840000
	189.649848	1447.130906	23.538000	-5.840000
	189.749853	1447.139746	23.486000	-5.730000
	189.849859	1447.133432	23.514000	-5.850000
	189.949864	1447.133432	23.514000	-5.850000
	190.049870	1447.130906	23.532000	-5.820000
	190.149876	1447.129643	23.528000	-5.810000
	190.249882	1447.125855	23.504000	-5.830000
	190.349887	1447.123329	23.506000	-5.820000
	190.449893	1446.678928	23.048000	-9.320000
	190.549899	1446.831790	23.118000	-4.590000
	190.649905	1446.948005	23.132000	-4.880000
	190.749910	1447.055383	23.160000	-4.950000
	190.849916	1447.153920	23.144000	-5.020000
	190.949922	1447.213289	23.154000	-5.330000
	191.049928	1447.275188	23.164000	-5.310000
	191.149933	1447.337089	23.150000	-5.310000
	191.249939	1447.381302	23.126000	-5.450000
	191.349945	1447.415410	23.168000	-5.530000
	191.449950	1447.415410	23.168000	-5.530000
	191.549956	1447.445728	23.184000	-5.560000
	191.649962	1447.481100	23.176000	-5.520000
	191.749968	1447.506366	23.150000	-5.600000
	191.849973	1447.513945	23.170000	-5.740000
	191.949979	1447.532894	23.178000	-5.650000
	192.049985	1447.549317	23.130000	-5.670000
	192.149991	1447.561950	23.162000	-5.700000
	192.249996	1447.567003	23.178000	-5.760000
	192.350002	1447.575846	23.208000	-5.730000
	192.450007	1447.584689	23.148000	-5.730000
	192.550013	1447.587215	23.144000	-5.780000
	192.650019	1447.579636	23.174000	-5.860000
	192.750025	1447.578373	23.182000	-5.810000
	192.850030	1447.580899	23.178000	-5.780000
	192.950036	1447.582162	23.174000	-5.790000
	193.050042	1447.577109	23.148000	-5.840000
	193.150048	1447.577109	23.148000	-5.840000
	193.250053	1447.575846	23.180000	-5.810000
	193.350059	1447.579636	23.192000	-5.770000
	193.450065	1447.587216	23.158000	-5.740000
	193.550070	1447.592269	23.156000	-5.760000
	193.650076	1447.589742	23.152000	-5.820000
	193.750082	1447.594795	23.176000	-5.760000
	193.850088	1447.602375	23.156000	-5.740000
	193.950093	1447.598585	23.152000	-5.830000
	194.050099	1447.592269	23.164000	-5.850000
	194.150105	1447.593533	23.188000	-5.790000
	194.250111	1447.597322	23.148000	-5.770000
	194.350116	1447.602376	23.156000	-5.760000
	194.450122	1447.592270	23.182000	-5.880000
	194.550128	1447.585954	23.218000	-5.850000
	194.650134	1447.593533	23.196000	-5.740000
	194.750139	1447.593533	23.196000	-5.740000
	194.850145	1447.597323	23.186000	-5.770000
	194.950150	1447.596060	23.124000	-5.810000
	195.050156	1447.592270	23.182000	-5.830000
	195.150162	1447.594797	23.202000	-5.780000
	195.250168	1447.598586	23.190000	-5.770000
	195.350173	1447.601113	23.152000	-5.780000
	195.450179	1447.594797	23.144000	-5.850000
	195.550185	1447.589744	23.178000	-5.840000
	195.650191	1447.596060	23.182000	-5.750000
	195.750196	1447.603640	23.174000	-5.740000
	195.850202	1447.598587	23.158000	-5.840000
	195.952208	1447.599850	23.170000	-5.790000
	196.050213	1447.596061	23.204000	-5.830000
	196.150219	1447.604904	23.174000	-5.730000
	196.250225	1447.598588	23.160000	-5.850000
	196.350231	1447.598588	23.160000	-5.850000
	196.450236	1447.599851	23.168000	-5.790000
	196.550242	1447.589745	23.212000	-5.880000
	196.650248	1447.604905	23.188000	-5.680000
	196.750254	1447.607432	23.164000	-5.780000
	196.850259	1447.602378	23.174000	-5.840000
	196.950265	1447.597325	23.162000	-5.840000
	197.050271	1447.593536	23.190000	-5.830000
	197.150276	1447.593536	23.190000	-5.800000
	197.250282	1447.596062	23.144000	-5.780000
	197.350288	1447.589746	23.152000	-5.850000
	197.450294	1447.585956	23.176000	-5.830000
	197.550299	1447.591009	23.194000	-5.760000
	197.650305	1447.597326	23.162000	-5.750000
	197.750311	1447.598589	23.164000	-5.790000
	197.850317	1447.598589	23.164000	-5.790000
	197.950322	1447.588483	23.174000	-5.880000
	198.050328	1447.591010	23.190000	-5.780000
	198.150333	1447.594800	23.170000	-5.770000
	198.250340	1447.599853	23.164000	-5.760000
	198.350345	1447.594800	23.164000	-5.840000
	198.450351	1447.598590	23.170000	-5.770000
	198.550356	1447.604906	23.174000	-5.750000
	198.650362	1447.602380	23.150000	-5.820000
	198.750368	1447.589748	23.148000	-5.900000
	198.850374	1447.582168	23.188000	-5.860000
	198.950379	1447.589748	23.202000	-5.740000
	199.050385	1447.596064	23.152000	-5.750000
	199.150391	1447.599854	23.134000	-5.770000
	199.250397	1447.587222	23.158000	-5.900000
	199.350402	1447.580906	23.200000	-5.850000
	199.450408	1447.580906	23.200000	-5.850000
	199.550414	1447.584696	23.190000	-5.770000
	199.650419	1447.591012	23.158000	-5.750000
	199.750425	1447.582170	23.158000	-5.870000
	199.850431	1447.582170	23.202000	-5.800000
	199.950437	1447.588486	23.172000	-5.750000
	200.050442	1447.585959	23.142000	-5.820000
	200.150448	1447.575854	23.184000	-5.880000
	200.250454	1447.578380	23.198000	-5.780000
	200.350460	1447.584697	23.174000	-5.750000
	200.450465	1447.580907	23.154000	-5.830000
	200.550471	1447.575854	23.166000	-5.840000
	200.651477	1447.577117	23.194000	-5.790000
	200.750483	1447.575854	23.178000	-5.810000
	200.850488	1447.585960	23.160000	-5.720000
	200.950494	1447.585960	23.160000	-5.720000
	201.050499	1447.582171	23.160000	-5.830000
	201.150505	1447.575855	23.214000	-5.850000
	201.250511	1447.572065	23.186000	-5.830000
	201.350517	1447.575855	23.176000	-5.770000
	201.449522	1447.570802	23.168000	-5.840000
	201.549528	1447.570802	23.166000	-5.800000
	201.649534	1447.567012	23.206000	-5.830000
	201.749539	1447.575855	23.178000	-5.730000
	201.849545	1447.580908	23.152000	-5.760000
	201.949551	1447.572066	23.148000	-5.870000
	202.059557	1447.564486	23.172000	-5.860000
	202.149562	1447.556907	23.186000	-5.860000
	202.249568	1447.556907	23.186000	-5.860000
	202.349574	1447.567013	23.202000	-5.720000
	202.449580	1447.575856	23.136000	-5.730000
	202.549585	1447.573330	23.168000	-5.820000
	202.654591	1447.569540	23.178000	-5.830000
	202.749597	1447.572067	23.194000	-5.780000
	202.849602	1447.572067	23.180000	-5.800000
	202.949608	1447.572067	23.144000	-5.800000
	203.049614	1447.567014	23.164000	-5.840000
	203.149620	1447.573330	23.192000	-5.750000
	203.249625	1447.587226	23.170000	-5.690000
	203.349631	1447.588490	23.174000	-5.790000
	203.449637	1447.592280	23.130000	-5.770000
	203.549643	1447.579647	23.192000	-5.900000
	203.649648	1447.583437	23.210000	-5.770000
	203.749654	1447.587227	23.208000	-5.770000
	203.849659	1447.587227	23.208000	-5.770000
	203.949665	1447.588490	23.150000	-5.790000
	204.049671	1447.582174	23.164000	-5.850000
	204.149677	1447.573332	23.194000	-5.870000
	204.249682	1447.574595	23.192000	-5.790000
	204.349688	1447.577121	23.190000	-5.780000
	204.449694	1447.585964	23.158000	-5.730000
	204.549700	1447.585964	23.158000	-5.800000
	204.649705	1447.575859	23.190000	-5.880000
	204.749711	1447.577122	23.218000	-5.790000
	204.849717	1447.593545	23.164000	-5.670000
	204.949722	1447.596072	23.156000	-5.780000
	205.049728	1447.592282	23.180000	-5.830000
	205.149734	1447.589755	23.220000	-5.820000
	205.249740	1447.589755	23.200000	-5.800000
	205.349745	1447.598599	23.172000	-5.730000
	205.449751	1447.598599	23.172000	-5.730000
	205.549757	1447.598599	23.152000	-5.800000
	205.649763	1447.584703	23.184000	-5.910000
	205.749768	1447.580914	23.202000	-5.830000
	205.849774	1447.578387	23.212000	-5.820000
	205.949780	1447.580914	23.182000	-5.780000
	206.049786	1447.577124	23.172000	-5.830000
	206.149791	1447.574597	23.180000	-5.820000
	206.249797	1447.573334	23.214000	-5.810000
	206.349802	1447.588494	23.218000	-5.680000
	206.449808	1447.575862	23.140000	-5.900000
	206.549814	1447.563230	23.176000	-5.900000
	206.654820	1447.565756	23.206000	-5.780000
	206.749825	1447.564493	23.182000	-5.810000
	206.849831	1447.564493	23.182000	-5.810000
	206.949837	1447.575863	23.176000	-5.710000
	207.049843	1447.572073	23.176000	-5.830000
	207.149848	1447.575863	23.188000	-5.770000
	207.249854	1447.572073	23.200000	-5.830000
	207.349860	1447.575863	23.176000	-5.770000
	207.449865	1447.575863	23.176000	-5.800000
	207.549871	1447.568284	23.160000	-5.860000
	207.649877	1447.560704	23.184000	-5.860000
	207.749883	1447.569547	23.202000	-5.730000
	207.849888	1447.579654	23.170000	-5.720000
	207.949894	1447.578390	23.154000	-5.810000
	208.050900	1447.563232	23.174000	-5.920000
	208.149906	1447.563232	23.182000	-5.800000
	208.249911	1447.575865	23.184000	-5.700000
	208.349917	1447.575865	23.184000	-5.700000
	208.449923	1447.582181	23.156000	-5.750000
	208.549929	1447.577129	23.174000	-5.840000
	208.649934	1447.570812	23.214000	-5.850000
	208.749940	1447.570812	23.190000	-5.800000
	208.849946	1447.577129	23.186000	-5.750000
	208.949951	1447.577129	23.166000	-5.800000
	209.049957	1447.569549	23.182000	-5.860000
	209.149963	1447.568286	23.224000	-5.810000
	209.249969	1447.570813	23.176000	-5.780000
	209.349974	1447.565760	23.178000	-5.840000
	209.449980	1447.567023	23.180000	-5.790000
	209.549986	1447.567023	23.182000	-5.800000
	209.649992	1447.572076	23.182000	-5.760000
	209.749997	1447.574603	23.172000	-5.780000
	209.850003	1447.568287	23.180000	-5.850000
	209.950008	1447.568287	23.180000	-5.850000
	210.050014	1447.569550	23.192000	-5.790000
	210.150020	1447.572076	23.170000	-5.780000
	210.250026	1447.569550	23.186000	-5.820000
	210.350031	1447.563234	23.192000	-5.850000
	210.451037	1447.563234	23.194000	-5.800000
	210.550043	1447.567024	23.180000	-5.770000
	210.650049	1447.561971	23.166000	-5.840000
	210.750054	1447.555655	23.200000	-5.850000
	210.850060	1447.556918	23.220000	-5.790000
	210.950066	1447.574604	23.200000	-5.660000
	211.050072	1447.577131	23.170000	-5.780000
	211.150077	1447.567025	23.212000	-5.880000
	211.250083	1447.567025	23.188000	-5.800000
	211.350089	1447.572078	23.202000	-5.760000
	211.450094	1447.563236	23.164000	-5.870000
	211.550100	1447.563236	23.164000	-5.870000
	211.650106	1447.554393	23.226000	-5.870000
	211.750112	1447.553130	23.210000	-5.810000
	211.850117	1447.556920	23.182000	-5.770000
	211.950123	1447.554393	23.174000	-5.820000
	212.053129	1447.551867	23.218000	-5.820000
	212.150135	1447.561973	23.194000	-5.720000
	212.250140	1447.567026	23.168000	-5.760000
	212.350146	1447.559447	23.186000	-5.860000
	212.450151	1447.559447	23.202000	-5.800000
	212.550157	1447.560710	23.200000	-5.790000
	212.650163	1447.563237	23.172000	-5.780000
	212.750169	1447.556921	23.178000	-5.850000
	212.850174	1447.555657	23.192000	-5.810000
	212.950180	1447.556921	23.194000	-5.790000
	213.050186	1447.556921	23.194000	-5.790000
	213.150192	1447.560710	23.176000	-5.770000
	213.250197	1447.554394	23.198000	-5.850000
	213.350203	1447.554394	23.200000	-5.800000
	213.450209	1447.561974	23.178000	-5.740000
	213.550214	1447.560711	23.170000	-5.810000
	213.650220	1447.561974	23.168000	-5.790000
	213.750226	1447.564500	23.204000	-5.780000
	213.850232	1447.574607	23.182000	-5.720000
	213.950237	1447.564501	23.172000	-5.880000
	214.050243	1447.554395	23.158000	-5.880000
	214.150249	1447.564502	23.200000	-5.720000
	214.250255	1447.561975	23.176000	-5.820000
	214.350260	1447.563238	23.172000	-5.790000
	214.450266	1447.551870	23.168000	-5.890000
	214.550272	1447.554396	23.208000	-5.780000
	214.650278	1447.554396	23.208000	-5.780000
	214.750283	1447.555659	23.166000	-5.790000
	214.850289	1447.556923	23.140000	-5.790000
	214.950294	1447.555659	23.194000	-5.810000
	215.050300	1447.568292	23.190000	-5.700000
	215.150306	1447.569556	23.188000	-5.790000
	215.250312	1447.568292	23.174000	-5.810000
	215.350317	1447.585979	23.216000	-5.660000
	215.450323	1447.584716	23.186000	-5.810000
	215.550329	1447.597349	23.158000	-5.700000
	215.650335	1447.598612	23.180000	-5.790000
	215.750340	1447.584717	23.166000	-5.910000
	215.850346	1447.579664	23.220000	-5.840000
	215.950352	1447.591033	23.194000	-5.710000
	216.050357	1447.588507	23.158000	-5.820000
	216.150363	1447.587244	23.172000	-5.810000
	216.250369	1447.587244	23.172000	-5.810000
	216.350375	1447.577138	23.214000	-5.880000
	216.450380	1447.580928	23.188000	-5.770000
	216.550386	1447.573348	23.172000	-5.860000
	216.650392	1447.573348	23.158000	-5.800000
	216.750398	1447.565769	23.214000	-5.860000
	216.850403	1447.568296	23.218000	-5.780000
	216.950409	1447.577139	23.188000	-5.730000
	217.050415	1447.583455	23.180000	-5.750000
	217.153420	1447.572086	23.192000	-5.890000
	217.250426	1447.574613	23.206000	-5.780000
	217.350432	1447.580929	23.174000	-5.750000
	217.450438	1447.587245	23.168000	-5.750000
	217.550443	1447.577140	23.180000	-5.880000
	217.650449	1447.572087	23.206000	-5.840000
	217.750455	1447.573350	23.190000	-5.790000
	217.850461	1447.569560	23.164000	-5.830000
	217.950466	1447.569560	23.164000	-5.830000
	218.050472	1447.570824	23.152000	-5.790000
	218.150477	1447.569560	23.198000	-5.810000
	218.250484	1447.568297	23.212000	-5.810000
	218.350489	1447.574614	23.178000	-5.750000
	218.450495	1447.579667	23.162000	-5.760000
	218.550500	1447.574614	23.188000	-5.840000
	218.650506	1447.574614	23.184000	-5.800000
	218.750512	1447.578403	23.156000	-5.770000
	218.850518	1447.583457	23.178000	-5.760000
	218.949523	1447.575877	23.170000	-5.860000
	219.049529	1447.564508	23.198000	-5.890000
	219.149535	1447.558192	23.184000	-5.850000
	219.249540	1447.558192	23.184000	-5.850000
	219.349546	1447.570825	23.176000	-5.700000
	219.449552	1447.574615	23.180000	-5.770000
	219.549558	1447.573352	23.162000	-5.810000
	219.649563	1447.572089	23.188000	-5.810000
	219.749569	1447.560720	23.212000	-5.890000
	219.849575	1447.567036	23.184000	-5.750000
	219.949581	1447.564510	23.166000	-5.820000
	220.049586	1447.560720	23.174000	-5.830000
	220.149592	1447.550614	23.178000	-5.880000
	220.249598	1447.564511	23.194000	-5.690000
	220.349603	1447.572090	23.150000	-5.740000
	220.449609	1447.574617	23.170000	-5.780000
	220.549615	1447.572090	23.194000	-5.820000
	220.649621	1447.565774	23.218000	-5.850000
	220.749626	1447.573354	23.186000	-5.740000
	220.849632	1447.585987	23.146000	-5.700000
	220.952638	1447.585987	23.146000	-5.700000
	221.049644	1447.578408	23.160000	-5.860000
	221.149649	1447.567039	23.196000	-5.890000
	221.249655	1447.560723	23.194000	-5.850000
	221.349660	1447.565776	23.202000	-5.760000
	221.449667	1447.572092	23.182000	-5.750000
	221.549672	1447.567039	23.178000	-5.840000
	221.649678	1447.567039	23.192000	-5.800000
	221.749683	1447.565776	23.214000	-5.810000
	221.849689	1447.570829	23.200000	-5.760000
	221.949695	1447.579672	23.180000	-5.730000
	222.049701	1447.580935	23.150000	-5.790000
	222.149706	1447.572093	23.190000	-5.870000
	222.249712	1447.573356	23.190000	-5.790000
	222.349718	1447.582199	23.184000	-5.730000
	222.449724	1447.578409	23.178000	-5.830000
	222.549729	1447.578409	23.178000	-5.830000
	222.649735	1447.584726	23.188000	-5.750000
	222.749741	1447.583462	23.168000	-5.810000
	222.849746	1447.583462	23.200000	-5.800000
	222.949752	1447.580936	23.198000	-5.820000
	223.049758	1447.585989	23.174000	-5.760000
	223.149764	1447.593569	23.184000	-5.740000
	223.249769	1447.588516	23.178000	-5.840000
	223.349775	1447.578410	23.152000	-5.880000
	223.449781	1447.577147	23.202000	-5.810000
	223.549787	1447.577147	23.172000	-5.800000
	223.649792	1447.582200	23.192000	-5.760000
	223.750798	1447.594833	23.170000	-5.700000
	223.849803	1447.594833	23.170000	-5.800000
	223.949809	1447.589780	23.172000	-5.840000
	224.049815	1447.589780	23.172000	-5.840000
	224.149821	1447.584727	23.204000	-5.840000
	224.249826	1447.585990	23.190000	-5.790000
	224.349832	1447.593570	23.202000	-5.740000
	224.449838	1447.599886	23.170000	-5.750000
	224.549844	1447.596097	23.176000	-5.830000
	224.649849	1447.589781	23.162000	-5.850000
	224.753855	1447.591044	23.208000	-5.790000
	224.849861	1447.583464	23.180000	-5.860000
	224.949866	1447.585991	23.222000	-5.780000
	225.049872	1447.589781	23.174000	-5.770000
	225.149878	1447.596097	23.196000	-5.750000
	225.249884	1447.585991	23.166000	-5.880000
	225.349889	1447.579675	23.176000	-5.850000
	225.449895	1447.577149	23.212000	-5.820000
	225.549901	1447.582202	23.208000	-5.760000
	225.649907	1447.579675	23.198000	-5.820000
	225.749912	1447.579675	23.198000	-5.820000
	225.849918	1447.579675	23.178000	-5.800000
	225.949924	1447.588518	23.180000	-5.730000
	226.049930	1447.588518	23.158000	-5.800000
	226.149935	1447.583465	23.188000	-5.840000
	226.249941	1447.570833	23.182000	-5.900000
	226.349946	1447.574623	23.202000	-5.770000
	226.449952	1447.573360	23.182000	-5.810000
	226.549958	1447.574623	23.194000	-5.790000
	226.649964	1447.577150	23.154000	-5.780000
	226.749969	1447.577150	23.182000	-5.800000
	226.849975	1447.572097	23.172000	-5.840000
	226.949981	1447.578413	23.198000	-5.750000
	227.049987	1447.578413	23.206000	-5.800000
	227.149992	1447.579677	23.196000	-5.790000
	227.249998	1447.580940	23.186000	-5.790000
	227.350004	1447.580940	23.186000	-5.790000
	227.450009	1447.582203	23.166000	-5.790000
	227.550015	1447.585993	23.162000	-5.770000
	227.650021	1447.578413	23.176000	-5.860000
	227.750027	1447.572097	23.176000	-5.850000
	227.850032	1447.565781	23.184000	-5.850000
	227.950038	1447.564518	23.206000	-5.810000
	228.050044	1447.563255	23.194000	-5.810000
	228.150050	1447.570834	23.184000	-5.740000
	228.250055	1447.573361	23.188000	-5.780000
	228.350061	1447.583467	23.190000	-5.720000
	228.450067	1447.577151	23.154000	-5.850000
	228.550072	1447.577151	23.148000	-5.800000
	228.650078	1447.572098	23.212000	-5.840000
	228.750084	1447.572098	23.212000	-5.840000
	228.850090	1447.565782	23.168000	-5.850000
	228.950095	1447.573362	23.196000	-5.740000
	229.050101	1447.582205	23.204000	-5.730000
	229.150107	1447.582205	23.200000	-5.800000
	229.250113	1447.579678	23.180000	-5.820000
	229.350118	1447.583468	23.192000	-5.770000
	229.450124	1447.583468	23.170000	-5.800000
	229.550129	1447.578415	23.184000	-5.840000
	229.650136	1447.578415	23.130000	-5.800000
	229.750141	1447.582205	23.196000	-5.770000
	229.850147	1447.587258	23.164000	-5.760000
	229.950152	1447.593574	23.194000	-5.750000
	230.050158	1447.592311	23.182000	-5.810000
	230.150164	1447.594838	23.172000	-5.780000
	230.250170	1447.589785	23.160000	-5.840000
	230.350175	1447.589785	23.160000	-5.840000
	230.450181	1447.585995	23.156000	-5.830000
	230.550187	1447.584732	23.180000	-5.810000
	230.650193	1447.584732	23.180000	-5.800000
	230.750198	1447.583469	23.186000	-5.810000
	230.850204	1447.589785	23.212000	-5.750000
	230.950210	1447.591048	23.176000	-5.790000
	231.050215	1447.585995	23.162000	-5.840000
	231.150221	1447.574626	23.180000	-5.890000
	231.250227	1447.579680	23.140000	-5.760000
	231.350233	1447.569574	23.186000	-5.880000
	231.450238	1447.565784	23.196000	-5.830000
	231.550244	1447.572100	23.210000	-5.750000
	231.650249	1447.577154	23.198000	-5.760000
	231.750256	1447.584733	23.190000	-5.740000
	231.850261	1447.585997	23.160000	-5.790000
	231.950267	1447.591050	23.174000	-5.760000
	232.050272	1447.591050	23.174000	-5.760000
	232.150278	1447.588523	23.160000	-5.820000
	232.250284	1447.588523	23.166000	-5.800000
	232.350290	1447.591050	23.178000	-5.780000
	232.450295	1447.585997	23.216000	-5.840000
	232.550301	1447.588523	23.196000	-5.780000
	232.650307	1447.591050	23.172000	-5.780000
	232.750313	1447.592313	23.180000	-5.790000
	232.850318	1447.601156	23.158000	-5.730000
	232.950324	1447.597366	23.162000	-5.830000
	233.050330	1447.596103	23.168000	-5.810000
	233.150335	1447.592313	23.170000	-5.830000
	233.250341	1447.579681	23.178000	-5.900000
	233.350347	1447.582208	23.208000	-5.780000
	233.450353	1447.588524	23.180000	-5.750000
	233.550358	1447.593577	23.198000	-5.760000
	233.650364	1447.593577	23.198000	-5.760000
	233.750370	1447.599894	23.202000	-5.750000
	233.850376	1447.603684	23.182000	-5.770000
	233.950381	1447.607474	23.200000	-5.770000
	234.050387	1447.606210	23.136000	-5.810000
	234.150393	1447.602421	23.178000	-5.830000
	234.250399	1447.594841	23.168000	-5.860000
	234.350404	1447.588525	23.192000	-5.850000
	234.450410	1447.579682	23.212000	-5.870000
	234.550416	1447.584735	23.196000	-5.760000
	234.650421	1447.587262	23.200000	-5.780000
	234.750427	1447.598632	23.206000	-5.710000
	234.850433	1447.601158	23.184000	-5.780000
	234.950438	1447.602422	23.178000	-5.790000
	235.050444	1447.602422	23.178000	-5.790000
	235.150450	1447.613791	23.158000	-5.710000
	235.250455	1447.610002	23.192000	-5.830000
	235.350461	1447.615055	23.174000	-5.760000
	235.450467	1447.604949	23.168000	-5.880000
	235.550473	1447.606212	23.170000	-5.790000
	235.650478	1447.602422	23.178000	-5.830000
	235.750484	1447.593580	23.186000	-5.870000
	235.850490	1447.591053	23.202000	-5.820000
	235.950496	1447.593580	23.180000	-5.780000
	236.050501	1447.598633	23.190000	-5.760000
	236.150507	1447.602423	23.184000	-5.770000
	236.250513	1447.615056	23.174000	-5.700000
	236.350519	1447.622636	23.156000	-5.740000
	236.449524	1447.615057	23.188000	-5.860000
	236.549530	1447.610003	23.172000	-5.840000
	236.649536	1447.610003	23.172000	-5.840000
	236.749541	1447.606214	23.136000	-5.830000
	236.849547	1447.597371	23.166000	-5.870000
	236.949553	1447.587265	23.156000	-5.880000
	237.049559	1447.582212	23.184000	-5.840000
	237.149564	1447.579686	23.186000	-5.820000
	237.249570	1447.578423	23.234000	-5.810000
	237.349576	1447.580949	23.182000	-5.780000
	237.449582	1447.579686	23.188000	-5.810000
	237.549587	1447.584739	23.200000	-5.760000
	237.649593	1447.597372	23.196000	-5.700000
	237.749599	1447.601162	23.184000	-5.770000
	237.849604	1447.610005	23.188000	-5.730000
	237.949610	1447.613795	23.170000	-5.770000
	238.049616	1447.607479	23.154000	-5.850000
	238.149621	1447.607479	23.172000	-5.800000
	238.249627	1447.610005	23.172000	-5.780000
	238.349633	1447.610005	23.172000	-5.780000
	238.449638	1447.602426	23.150000	-5.860000
	238.549644	1447.610006	23.162000	-5.740000
	238.649650	1447.606216	23.156000	-5.830000
	238.749656	1447.599900	23.180000	-5.850000
	238.849661	1447.593583	23.162000	-5.850000
	238.949667	1447.589794	23.148000	-5.830000
	239.049673	1447.583477	23.194000	-5.850000
	239.149679	1447.578425	23.172000	-5.840000
	239.249684	1447.577161	23.184000	-5.810000
	239.349690	1447.583478	23.212000	-5.750000
	239.449696	1447.582214	23.210000	-5.810000
	239.549702	1447.582214	23.202000	-5.800000
	239.649707	1447.580951	23.204000	-5.810000
	239.749713	1447.580951	23.200000	-5.800000
	239.849719	1447.580951	23.200000	-5.800000
	239.949724	1447.583478	23.208000	-5.780000
	240.049730	1447.589794	23.180000	-5.750000
	240.149736	1447.592321	23.202000	-5.780000
	240.249742	1447.606217	23.184000	-5.690000
	240.349747	1447.608744	23.186000	-5.780000
	240.449753	1447.604954	23.200000	-5.830000
	240.549759	1447.615061	23.184000	-5.720000
	240.649765	1447.618850	23.184000	-5.770000
	240.749770	1447.622640	23.176000	-5.770000
	240.849776	1447.623904	23.184000	-5.790000
	240.949781	1447.615061	23.198000	-5.870000
	241.049788	1447.616324	23.176000	-5.790000
	241.149793	1447.612534	23.162000	-5.830000
	241.249799	1447.612534	23.186000	-5.800000
	241.349804	1447.612534	23.186000	-5.800000
	241.449810	1447.627695	23.166000	-5.680000
	241.549816	1447.626431	23.172000	-5.810000
	241.649822	1447.627695	23.160000	-5.790000
	241.749827	1447.625168	23.164000	-5.820000
	241.849833	1447.627695	23.178000	-5.780000
	241.949839	1447.628958	23.160000	-5.790000
	242.049844	1447.625168	23.184000	-5.830000
	242.149850	1447.622642	23.172000	-5.820000
	242.249856	1447.627695	23.160000	-5.760000
	242.349862	1447.627695	23.178000	-5.800000
	242.449867	1447.625168	23.154000	-5.820000
	242.549873	1447.628958	23.178000	-5.770000
	242.649879	1447.636538	23.146000	-5.740000
	242.749885	1447.636538	23.146000	-5.740000
	242.849890	1447.632748	23.184000	-5.830000
	242.949896	1447.635275	23.160000	-5.780000
	243.049901	1447.640328	23.172000	-5.760000
	243.149908	1447.645381	23.192000	-5.760000
	243.249913	1447.637802	23.196000	-5.860000
	243.349919	1447.632749	23.190000	-5.840000
	243.449924	1447.632749	23.182000	-5.800000
	243.549930	1447.623906	23.188000	-5.870000
	243.649936	1447.621379	23.206000	-5.820000
	243.749942	1447.618853	23.204000	-5.820000
	243.849947	1447.618853	23.204000	-5.820000
	243.949953	1447.615063	23.210000	-5.830000
	244.049959	1447.621380	23.180000	-5.750000
	244.149965	1447.623906	23.194000	-5.780000
	244.249970	1447.618853	23.198000	-5.840000
	244.349976	1447.615063	23.170000	-5.830000
	244.449982	1447.611273	23.192000	-5.830000
	244.549987	1447.616327	23.176000	-5.760000
	244.649993	1447.623907	23.200000	-5.740000
	244.749999	1447.622643	23.198000	-5.810000
	244.850005	1447.620117	23.176000	-5.820000
	244.950010	1447.628960	23.194000	-5.730000
	245.050016	1447.632750	23.184000	-5.770000
	245.150022	1447.628960	23.162000	-5.830000
	245.250028	1447.627697	23.186000	-5.810000
	245.350033	1447.634013	23.194000	-5.750000
	245.450039	1447.634013	23.194000	-5.750000
	245.550045	1447.634013	23.208000	-5.800000
	245.650051	1447.631487	23.172000	-5.820000
	245.750056	1447.623907	23.186000	-5.860000
	245.850062	1447.620117	23.166000	-5.830000
	245.950068	1447.621381	23.176000	-5.790000
	246.050073	1447.617591	23.204000	-5.830000
	246.150079	1447.618854	23.208000	-5.790000
	246.250085	1447.612538	23.186000	-5.850000
	246.350091	1447.612538	23.190000	-5.800000
	246.450096	1447.613801	23.198000	-5.790000
	246.551102	1447.615064	23.238000	-5.790000
	246.650108	1447.617591	23.178000	-5.780000
	246.750113	1447.621381	23.174000	-5.770000
	246.850119	1447.622644	23.186000	-5.790000
	246.950125	1447.622644	23.186000	-5.790000
	247.050130	1447.611275	23.202000	-5.890000
	247.150136	1447.597380	23.272000	-5.910000
	247.250142	1447.591063	23.098000	-5.850000
	247.350148	1447.591063	23.182000	-5.800000
	247.450153	1447.596117	23.196000	-5.760000
	247.550159	1447.606223	23.178000	-5.720000
	247.650165	1447.598644	23.176000	-5.860000
	247.750171	1447.593591	23.188000	-5.840000
	247.850176	1447.598644	23.206000	-5.760000
	247.950182	1447.602434	23.180000	-5.770000
	248.050188	1447.615067	23.150000	-5.700000
	248.150194	1447.615067	23.150000	-5.700000
	248.250199	1447.611277	23.148000	-5.830000
	248.350205	1447.607487	23.198000	-5.830000
	248.450211	1447.608751	23.160000	-5.790000
	248.550216	1447.607487	23.160000	-5.810000
	248.650222	1447.610014	23.158000	-5.780000
	248.750228	1447.616330	23.154000	-5.750000
	248.850234	1447.623910	23.192000	-5.740000
	248.950239	1447.628964	23.168000	-5.760000
	249.050245	1447.627700	23.160000	-5.810000
	249.150251	1447.631490	23.182000	-5.770000
	249.250257	1447.632754	23.182000	-5.790000
	249.350262	1447.636543	23.184000	-5.770000
	249.450268	1447.636543	23.194000	-5.800000
	249.550273	1447.636543	23.166000	-5.800000
	249.650280	1447.632754	23.170000	-5.830000
	249.750285	1447.632754	23.170000	-5.830000
	249.850291	1447.632754	23.170000	-5.800000
	249.950296	1447.623911	23.198000	-5.870000
	250.050302	1447.625174	23.184000	-5.790000
	250.150308	1447.612542	23.180000	-5.900000
	250.250314	1447.615068	23.204000	-5.780000
	250.350319	1447.615068	23.172000	-5.800000
	250.450325	1447.610015	23.194000	-5.840000
	250.550331	1447.612542	23.192000	-5.780000
	250.650336	1447.613805	23.162000	-5.790000
	250.750342	1447.618858	23.174000	-5.760000
	250.850348	1447.610016	23.198000	-5.870000
	250.950354	1447.601173	23.182000	-5.870000
	251.050359	1447.601173	23.182000	-5.870000
	251.150365	1447.597383	23.158000	-5.830000
	251.250371	1447.599910	23.168000	-5.780000
	251.350377	1447.597383	23.170000	-5.820000
	251.450382	1447.592330	23.208000	-5.840000
	251.550388	1447.588540	23.168000	-5.830000
	251.650393	1447.587277	23.158000	-5.810000
	251.750400	1447.591067	23.184000	-5.770000
	251.850405	1447.589804	23.162000	-5.810000
	251.950411	1447.596120	23.180000	-5.750000
	252.050416	1447.598647	23.166000	-5.780000
	252.150422	1447.608753	23.166000	-5.720000
	252.250428	1447.615070	23.154000	-5.750000
	252.350434	1447.615070	23.170000	-5.800000
	252.450439	1447.630230	23.176000	-5.680000
	252.550445	1447.630230	23.176000	-5.680000
	252.650451	1447.631493	23.186000	-5.790000
	252.750457	1447.637810	23.176000	-5.750000
	252.850462	1447.641600	23.170000	-5.770000
	252.950468	1447.649180	23.180000	-5.740000
	253.050474	1447.647917	23.160000	-5.810000
	253.150479	1447.654233	23.156000	-5.750000
	253.250485	1447.654233	23.154000	-5.800000
	253.350491	1447.656760	23.184000	-5.780000
	253.450497	1447.660550	23.182000	-5.770000
	253.550502	1447.655497	23.166000	-5.840000
	253.650508	1447.658023	23.180000	-5.780000
	253.750514	1447.659287	23.174000	-5.790000
	253.849519	1447.659287	23.200000	-5.800000
	253.949525	1447.647917	23.174000	-5.890000
	254.049531	1447.647917	23.174000	-5.890000
	254.149537	1447.647917	23.192000	-5.800000
	254.249542	1447.650444	23.178000	-5.780000
	254.349548	1447.652971	23.200000	-5.780000
	254.449554	1447.656761	23.164000	-5.770000
	254.549560	1447.647918	23.186000	-5.870000
	254.649565	1447.641601	23.182000	-5.850000
	254.749571	1447.635285	23.178000	-5.850000
	254.849576	1447.636548	23.194000	-5.790000
	254.949583	1447.634022	23.192000	-5.820000
	255.049588	1447.630232	23.178000	-5.830000
	255.149594	1447.631495	23.182000	-5.790000
	255.249599	1447.630232	23.206000	-5.810000
	255.349605	1447.630232	23.170000	-5.800000
	255.449611	1447.630232	23.170000	-5.800000
	255.549617	1447.618863	23.176000	-5.890000
	255.649622	1447.616336	23.170000	-5.820000
	255.749628	1447.610020	23.192000	-5.850000
	255.849634	1447.610020	23.196000	-5.800000
	255.949640	1447.610020	23.162000	-5.800000
	256.049645	1447.613810	23.150000	-5.770000
	256.149651	1447.613810	23.164000	-5.800000
	256.249657	1447.615073	23.174000	-5.790000
	256.349662	1447.616336	23.172000	-5.790000
	256.449668	1447.625179	23.182000	-5.730000
	256.549674	1447.630233	23.182000	-5.760000
	256.649680	1447.622653	23.174000	-5.860000
	256.749685	1447.615074	23.164000	-5.860000
	256.849691	1447.616337	23.176000	-5.790000
	256.949697	1447.616337	23.176000	-5.790000
	257.049703	1447.607494	23.170000	-5.870000
	257.149708	1447.611284	23.190000	-5.770000
	257.249714	1447.611284	23.170000	-5.800000
	257.349720	1447.607494	23.156000	-5.830000
	257.449726	1447.604968	23.164000	-5.820000
	257.549731	1447.610021	23.190000	-5.760000
	257.649737	1447.612547	23.172000	-5.780000
	257.749743	1447.616337	23.172000	-5.770000
	257.850749	1447.615074	23.182000	-5.810000
	257.949754	1447.611284	23.176000	-5.830000
	258.049760	1447.621391	23.176000	-5.720000
	258.149765	1447.625181	23.184000	-5.770000
	258.249771	1447.625181	23.184000	-5.770000
	258.349777	1447.623917	23.180000	-5.810000
	258.449782	1447.622654	23.166000	-5.810000
	258.549788	1447.625181	23.176000	-5.780000
	258.649794	1447.627707	23.186000	-5.780000
	258.749800	1447.625181	23.214000	-5.820000
	258.849805	1447.618864	23.168000	-5.850000
	258.949811	1447.617601	23.204000	-5.810000
	259.049817	1447.626444	23.186000	-5.730000
	259.149823	1447.634024	23.180000	-5.740000
	259.249828	1447.639078	23.180000	-5.760000
	259.349834	1447.639078	23.158000	-5.800000
	259.449840	1447.635288	23.190000	-5.830000
	259.549846	1447.634025	23.182000	-5.810000
	259.649851	1447.634025	23.182000	-5.810000
	259.749857	1447.644131	23.192000	-5.720000
	259.849863	1447.654238	23.180000	-5.720000
	259.949868	1447.660555	23.172000	-5.750000
	260.049874	1447.660555	23.168000	-5.800000
	260.149880	1447.659292	23.178000	-5.810000
	260.249886	1447.660555	23.170000	-5.790000
	260.349891	1447.666872	23.142000	-5.750000
	260.449897	1447.665608	23.156000	-5.810000
	260.549903	1447.665608	23.130000	-5.800000
	260.649909	1447.658029	23.124000	-5.860000
	260.749914	1447.652975	23.190000	-5.840000
	260.849920	1447.642869	23.164000	-5.880000
	260.949925	1447.642869	23.152000	-5.800000
	261.049932	1447.640343	23.160000	-5.820000
	261.149937	1447.640343	23.160000	-5.820000
	261.249943	1447.637816	23.172000	-5.820000
	261.349948	1447.640343	23.156000	-5.780000
	261.449954	1447.641606	23.162000	-5.790000
	261.549960	1447.630237	23.180000	-5.890000
	261.649966	1447.626447	23.164000	-5.830000
	261.749971	1447.623920	23.160000	-5.820000
	261.849977	1447.618867	23.176000	-5.840000
	261.949983	1447.612551	23.172000	-5.850000
	262.049988	1447.612551	23.192000	-5.800000
	262.149994	1447.620131	23.200000	-5.740000
	262.250000	1447.627711	23.166000	-5.740000
	262.350006	1447.628974	23.190000	-5.790000
	262.450011	1447.641607	23.182000	-5.700000
	262.550017	1447.800897	23.418000	-4.540000
	262.650023	1447.721319	23.458000	-6.430000
	262.750029	1447.721319	23.458000	-6.430000
	262.850034	1447.658162	23.436000	-6.300000
	262.950040	1447.608900	23.438000	-6.190000
	263.050045	1447.564692	23.446000	-6.150000
	263.150052	1447.524274	23.422000	-6.120000
	263.250057	1447.482593	23.436000	-6.130000
	263.350063	1447.449755	23.430000	-6.060000
	263.450068	1447.421968	23.424000	-6.020000
	263.550074	1447.392919	23.460000	-6.030000
	263.650080	1447.365134	23.446000	-6.020000
	263.750086	1447.342400	23.438000	-5.980000
	263.850091	1447.328507	23.466000	-5.910000
	263.950097	1447.320929	23.462000	-5.860000
	264.050103	1447.314614	23.472000	-5.850000
	264.150109	1447.314614	23.462000	-5.800000
	264.250114	1447.314614	23.462000	-5.800000
	264.350120	1447.317141	23.452000	-5.780000
	264.450126	1447.319667	23.450000	-5.780000
	264.550131	1447.310826	23.430000	-5.870000
	264.650137	1447.304511	23.448000	-5.850000
	264.750143	1447.298196	23.446000	-5.850000
	264.850149	1447.285566	23.436000	-5.900000
	264.950154	1447.279251	23.456000	-5.850000
	265.050160	1447.269148	23.468000	-5.880000
	265.151166	1447.264096	23.480000	-5.840000
	265.250172	1447.259044	23.462000	-5.840000
	265.350177	1447.270411	23.464000	-5.710000
	265.450183	1447.274200	23.466000	-5.770000
	265.550189	1447.280515	23.432000	-5.750000
	265.650194	1447.284305	23.456000	-5.770000
	265.750200	1447.284305	23.456000	-5.770000
	265.850206	1447.281779	23.418000	-5.820000
	265.950212	1447.284305	23.444000	-5.780000
	266.050217	1447.274201	23.426000	-5.880000
	266.150223	1447.266623	23.446000	-5.860000
	266.250229	1447.259046	23.438000	-5.860000
	266.350235	1447.261572	23.464000	-5.780000
	266.450240	1447.274202	23.464000	-5.700000
	266.550246	1447.277991	23.442000	-5.770000
	266.650251	1447.283043	23.444000	-5.760000
	266.750257	1447.281780	23.434000	-5.810000
	266.850263	1447.285569	23.436000	-5.770000
	266.950269	1447.277991	23.444000	-5.860000
	267.050274	1447.271676	23.450000	-5.850000
	267.150280	1447.262836	23.420000	-5.870000
	267.250286	1447.253995	23.448000	-5.870000
	267.350292	1447.255258	23.470000	-5.790000
	267.450297	1447.255258	23.470000	-5.790000
	267.550303	1447.251469	23.482000	-5.830000
	267.650309	1447.250206	23.460000	-5.810000
	267.750315	1447.256521	23.480000	-5.750000
	267.850320	1447.264099	23.466000	-5.740000
	267.950326	1447.272940	23.462000	-5.730000
	268.050332	1447.275466	23.430000	-5.780000
	268.150337	1447.285571	23.460000	-5.720000
	268.250343	1447.293149	23.422000	-5.740000
	268.350349	1447.293149	23.450000	-5.800000
	268.450355	1447.283045	23.428000	-5.880000
	268.550360	1447.281782	23.432000	-5.810000
	268.650366	1447.271679	23.476000	-5.880000
	268.750372	1447.271679	23.440000	-5.800000
	268.850378	1447.269153	23.496000	-5.820000
	268.950383	1447.269153	23.470000	-5.800000
	269.050389	1447.269153	23.470000	-5.800000
	269.150394	1447.276731	23.476000	-5.740000
	269.250400	1447.274205	23.442000	-5.820000
	269.350406	1447.271679	23.414000	-5.820000
	269.450412	1447.267890	23.420000	-5.830000
	269.550417	1447.255261	23.460000	-5.900000
	269.650423	1447.248946	23.472000	-5.850000
	269.750429	1447.238843	23.450000	-5.880000
	269.850435	1447.243894	23.482000	-5.760000
	269.950440	1447.241369	23.468000	-5.820000
	270.050446	1447.251473	23.474000	-5.720000
	270.150452	1447.255262	23.470000	-5.770000
	270.251458	1447.259051	23.444000	-5.770000
	270.350463	1447.266629	23.424000	-5.740000
	270.450469	1447.275470	23.422000	-5.730000
	270.550475	1447.272944	23.440000	-5.820000
	270.650480	1447.272944	23.440000	-5.820000
	270.750486	1447.270418	23.438000	-5.820000
	270.850492	1447.264103	23.470000	-5.850000
	270.950498	1447.259051	23.492000	-5.840000
	271.050503	1447.262840	23.480000	-5.770000
	271.150509	1447.260314	23.464000	-5.820000
	271.250515	1447.265366	23.446000	-5.760000
	271.349520	1447.274207	23.426000	-5.730000
	271.449526	1447.271681	23.432000	-5.820000
	271.549532	1447.260315	23.462000	-5.890000
	271.649538	1447.256526	23.444000	-5.830000
	271.749543	1447.257789	23.440000	-5.790000
	271.849549	1447.257789	23.458000	-5.800000
	271.949555	1447.259052	23.450000	-5.790000
	272.049561	1447.270419	23.464000	-5.710000
	272.150566	1447.281787	23.444000	-5.710000
	272.249572	1447.281787	23.444000	-5.710000
	272.349577	1447.283050	23.444000	-5.790000
	272.449584	1447.285576	23.430000	-5.780000
	272.549589	1447.286839	23.434000	-5.790000
	272.649595	1447.281787	23.460000	-5.840000
	272.749600	1447.275472	23.474000	-5.850000
	272.849606	1447.271683	23.478000	-5.830000
	272.949612	1447.271683	23.454000	-5.800000
	273.051618	1447.279261	23.452000	-5.740000
	273.149623	1447.284313	23.470000	-5.760000
	273.249629	1447.281787	23.434000	-5.820000
	273.349635	1447.277998	23.438000	-5.830000
	273.449640	1447.271683	23.436000	-5.850000
	273.549646	1447.269157	23.454000	-5.820000
	273.649652	1447.266631	23.484000	-5.820000
	273.749658	1447.279262	23.464000	-5.700000
	273.849663	1447.279262	23.464000	-5.700000
	273.949669	1447.286840	23.472000	-5.740000
	274.049675	1447.293155	23.412000	-5.750000
	274.149681	1447.284314	23.428000	-5.870000
	274.249686	1447.276737	23.428000	-5.860000
	274.349692	1447.265370	23.442000	-5.890000
	274.449697	1447.266633	23.446000	-5.790000
	274.549704	1447.262844	23.446000	-5.830000
	274.652709	1447.278001	23.494000	-5.680000
	274.749715	1447.278001	23.432000	-5.800000
	274.849720	1447.281790	23.462000	-5.770000
	274.949726	1447.285579	23.436000	-5.770000
	275.049732	1447.281790	23.432000	-5.830000
	275.149738	1447.279264	23.452000	-5.820000
	275.249743	1447.276738	23.476000	-5.820000
	275.349749	1447.276738	23.476000	-5.820000
	275.449755	1447.285579	23.478000	-5.730000
	275.549761	1447.290631	23.454000	-5.760000
	275.649766	1447.296946	23.448000	-5.750000
	275.749772	1447.304525	23.426000	-5.740000
	275.849778	1447.307051	23.446000	-5.780000
	275.949783	1447.300736	23.432000	-5.850000
	276.049789	1447.303262	23.494000	-5.780000
	276.149795	1447.301999	23.460000	-5.810000
	276.249801	1447.307051	23.458000	-5.760000
	276.349806	1447.304525	23.440000	-5.820000
	276.449812	1447.300736	23.440000	-5.830000
	276.549818	1447.294421	23.454000	-5.850000
	276.649824	1447.285580	23.478000	-5.870000
	276.749829	1447.285580	23.478000	-5.870000
	276.849835	1447.283054	23.466000	-5.820000
	276.951841	1447.279265	23.468000	-5.830000
	277.049846	1447.280528	23.470000	-5.790000
	277.149852	1447.286843	23.418000	-5.750000
	277.249858	1447.281791	23.458000	-5.840000
	277.349864	1447.274214	23.444000	-5.860000
	277.449869	1447.267899	23.484000	-5.850000
	277.599878	1447.270425	23.454000	-5.780000
	277.699883	1447.278003	23.472000	-5.740000
	277.799889	1447.285581	23.424000	-5.740000
	277.899895	1447.281792	23.434000	-5.830000
	277.999901	1447.271689	23.452000	-5.880000
	278.099906	1447.269163	23.466000	-5.820000
	278.199912	1447.265374	23.456000	-5.830000
	278.299918	1447.271689	23.448000	-5.750000
	278.399924	1447.275478	23.422000	-5.770000
	278.499929	1447.275478	23.422000	-5.770000
	278.599935	1447.279267	23.436000	-5.770000
	278.699941	1447.267900	23.428000	-5.890000
	278.799946	1447.264111	23.464000	-5.830000
	278.899952	1447.272953	23.460000	-5.730000
	278.999958	1447.279268	23.474000	-5.750000
	279.099964	1447.289372	23.454000	-5.720000
	279.199969	1447.286846	23.426000	-5.820000
	279.299975	1447.275479	23.416000	-5.890000
	279.399981	1447.276742	23.440000	-5.790000
	279.499987	1447.276742	23.480000	-5.800000
	279.599992	1447.285584	23.466000	-5.730000
	279.699998	1447.291899	23.442000	-5.750000
	279.800004	1447.288110	23.434000	-5.830000
	279.900010	1447.276743	23.444000	-5.890000
	280.000015	1447.269165	23.484000	-5.860000
	280.050018	1447.280533	23.466000	-5.710000
	280.200027	1447.280533	23.466000	-5.710000
	280.300032	1447.289374	23.462000	-5.730000
	280.400038	1447.290637	23.432000	-5.790000
	280.500044	1447.290637	23.454000	-5.800000
	280.600049	1447.291900	23.446000	-5.790000
	280.700055	1447.296952	23.466000	-5.760000
	280.800061	1447.304530	23.468000	-5.740000
	280.900066	1447.307056	23.440000	-5.780000
	281.000072	1447.302004	23.432000	-5.840000
	281.100078	1447.296952	23.472000	-5.840000
	281.200084	1447.299478	23.472000	-5.780000
	281.300089	1447.312109	23.434000	-5.700000
	281.400095	1447.308320	23.414000	-5.830000
	281.500101	1447.307057	23.436000	-5.810000
	281.601107	1447.299479	23.460000	-5.860000
	281.700112	1447.303268	23.460000	-5.770000
	281.800118	1447.303268	23.460000	-5.770000
	281.900124	1447.309583	23.440000	-5.750000
	282.000130	1447.307057	23.454000	-5.820000
	282.100135	1447.291902	23.430000	-5.920000
	282.200141	1447.280535	23.480000	-5.890000
	282.300147	1447.288114	23.456000	-5.740000
	282.400152	1447.286851	23.450000	-5.810000
	282.500158	1447.288114	23.442000	-5.790000
	282.600164	1447.079811	22.822000	-7.450000
	282.700170	1447.115175	23.010000	-5.520000
	282.800175	1447.170752	23.390000	-5.360000
	282.900181	1447.328725	23.370000	-4.550000
	283.000187	1447.155760	23.332000	-7.170000
	283.100193	1447.294761	22.928000	-4.700000
	283.200198	1447.296024	23.460000	-5.790000
	283.300204	1447.270766	23.464000	-6.000000
	283.400209	1447.270766	23.464000	-6.000000
	283.500216	1447.279607	23.470000	-5.730000
	283.600221	1447.279607	23.464000	-5.800000
	283.700227	1447.282133	23.516000	-5.780000
	283.800232	1447.266978	23.478000	-5.920000
	283.900238	1447.206366	23.558000	-6.280000
	284.000244	1447.140707	23.670000	-6.320000
	284.100250	1447.066214	23.748000	-6.390000
	284.200255	1446.995512	23.764000	-6.360000
	284.300261	1446.934912	23.822000	-6.280000
	284.400267	1446.888199	23.846000	-6.170000
	284.500273	1446.880624	23.982000	-5.860000
	284.600278	1446.830126	23.920000	-6.200000
	284.700284	1446.790990	23.868000	-6.110000
	284.800290	1446.767004	23.846000	-5.990000
	284.900295	1446.737968	23.820000	-6.030000
	285.000301	1446.721556	23.858000	-5.930000
	285.100307	1446.719031	23.848000	-5.820000
	285.200313	1446.719031	23.848000	-5.820000
	285.300318	1446.711456	23.828000	-5.860000
	285.400324	1446.702619	23.876000	-5.870000
	285.500330	1446.701357	23.844000	-5.810000
	285.600336	1446.705144	23.856000	-5.770000
	285.700341	1446.683683	23.874000	-5.970000
	285.800347	1446.679896	23.864000	-5.830000
	285.900352	1446.679896	23.840000	-5.800000
	286.000359	1446.676109	23.856000	-5.830000
	286.100364	1446.681159	23.874000	-5.760000
	286.200370	1446.682421	23.840000	-5.790000
	286.300375	1446.678634	23.846000	-5.830000
	286.400381	1446.677371	23.848000	-5.810000
	286.500387	1446.677371	23.804000	-5.800000
	286.600393	1446.672321	23.874000	-5.840000
	286.700398	1446.676109	23.864000	-5.770000
	286.800404	1446.676109	23.864000	-5.770000
	286.900410	1446.679896	23.802000	-5.770000
	287.000416	1446.681159	23.874000	-5.790000
	287.100421	1446.693784	23.840000	-5.700000
	287.200427	1446.692522	23.836000	-5.810000
	287.300433	1446.688734	23.868000	-5.830000
	287.401439	1446.692522	23.856000	-5.770000
	287.500444	1446.697572	23.844000	-5.760000
	287.550447	1446.700097	23.880000	-5.780000
	287.700456	1446.712722	23.866000	-5.700000
	287.800461	1446.717772	23.844000	-5.760000
	287.900467	1446.715247	23.876000	-5.820000
	288.000473	1446.712722	23.860000	-5.820000
	288.100479	1446.710197	23.818000	-5.820000
	288.200484	1446.701360	23.852000	-5.870000
	288.300490	1446.706410	23.840000	-5.760000
	288.400496	1446.702623	23.820000	-5.830000
	288.500502	1446.702623	23.820000	-5.830000
	288.600507	1446.702623	23.864000	-5.800000
	288.700513	1446.710198	23.838000	-5.740000
	288.800519	1446.716510	23.852000	-5.750000
	288.908525	1446.710198	23.846000	-5.850000
	288.949527	1446.708935	23.844000	-5.810000
	289.099535	1446.705148	23.832000	-5.830000
	289.199541	1446.700098	23.858000	-5.840000
	289.303547	1446.703886	23.860000	-5.770000
	289.399553	1446.700098	23.850000	-5.830000
	289.499558	1446.703886	23.884000	-5.770000
	289.599564	1446.707673	23.890000	-5.770000
	289.699570	1446.701361	23.830000	-5.850000
	289.799576	1446.700099	23.896000	-5.810000
	289.899581	1446.702624	23.846000	-5.780000
	289.999587	1446.702624	23.846000	-5.780000
	290.099593	1446.707674	23.856000	-5.760000
	290.199598	1446.703886	23.890000	-5.830000
	290.299604	1446.713986	23.854000	-5.720000
	290.399610	1446.712724	23.846000	-5.810000
	290.499616	1446.716511	23.884000	-5.770000
	290.599621	1446.725349	23.864000	-5.730000
	290.699627	1446.721562	23.848000	-5.830000
	290.799633	1446.719037	23.872000	-5.820000
	290.899639	1446.725349	23.832000	-5.750000
	290.999644	1446.720299	23.848000	-5.840000
	291.099650	1446.729137	23.880000	-5.730000
	291.199656	1446.734187	23.846000	-5.760000
	291.299662	1446.721563	23.862000	-5.900000
	291.399667	1446.721563	23.886000	-5.800000
	291.499673	1446.731663	23.838000	-5.720000
	291.599679	1446.731663	23.838000	-5.720000
	291.699684	1446.727876	23.848000	-5.830000
	291.799690	1446.721563	23.864000	-5.850000
	291.899696	1446.731664	23.846000	-5.720000
	291.999701	1446.729139	23.852000	-5.820000
	292.099707	1446.725351	23.878000	-5.830000
	292.199713	1446.731664	23.848000	-5.750000
	292.299719	1446.727876	23.838000	-5.830000
	292.399724	1446.727876	23.866000	-5.800000
	292.499730	1446.739239	23.838000	-5.710000
	292.599736	1446.736714	23.812000	-5.820000
	292.699741	1446.737977	23.886000	-5.790000
	292.799747	1446.746815	23.860000	-5.730000
	292.899753	1446.746815	23.820000	-5.800000
	292.999759	1446.741765	23.872000	-5.840000
	293.099764	1446.741765	23.872000	-5.840000
	293.201770	1446.745552	23.824000	-5.770000
	293.299776	1446.743027	23.846000	-5.820000
	293.399782	1446.741765	23.868000	-5.810000
	293.499787	1446.740502	23.846000	-5.810000
	293.599793	1446.740502	23.836000	-5.800000
	293.699799	1446.745552	23.870000	-5.760000
	293.799805	1446.751865	23.824000	-5.750000
	293.899810	1446.746815	23.880000	-5.840000
	293.999816	1446.758178	23.856000	-5.710000
	294.099822	1446.756916	23.816000	-5.810000
	294.199827	1446.750603	23.862000	-5.850000
	294.299833	1446.755654	23.858000	-5.760000
	294.399839	1446.758179	23.840000	-5.780000
	294.499845	1446.745554	23.860000	-5.900000
	294.599850	1446.746816	23.862000	-5.790000
	294.699856	1446.746816	23.862000	-5.790000
	294.799862	1446.743029	23.828000	-5.830000
	294.899868	1446.734191	23.856000	-5.870000
	294.999873	1446.736716	23.862000	-5.780000
	295.099879	1446.730404	23.830000	-5.850000
	295.199884	1446.727879	23.862000	-5.820000
	295.299891	1446.746818	23.854000	-5.650000
	295.399896	1446.741768	23.834000	-5.840000
	295.499902	1446.749343	23.858000	-5.740000
	295.599907	1446.755656	23.828000	-5.750000
	295.699913	1446.746819	23.872000	-5.870000
	295.799919	1446.749344	23.866000	-5.780000
	295.899925	1446.748081	23.830000	-5.810000
	295.999930	1446.744294	23.858000	-5.830000
	296.099936	1446.750606	23.862000	-5.750000
	296.199942	1446.760707	23.818000	-5.720000
	296.299948	1446.760707	23.818000	-5.720000
	296.399953	1446.759444	23.862000	-5.810000
	296.499959	1446.764495	23.840000	-5.760000
	296.599965	1446.768282	23.838000	-5.770000
	296.699970	1446.763232	23.848000	-5.840000
	296.799976	1446.775858	23.832000	-5.700000
	296.899982	1446.761971	23.832000	-5.910000
	296.999988	1446.767021	23.902000	-5.760000
	297.099993	1446.769546	23.808000	-5.780000
	297.199999	1446.772071	23.858000	-5.780000
	297.300004	1446.783435	23.854000	-5.710000
	297.400011	1446.770810	23.832000	-5.900000
	297.500016	1446.774597	23.874000	-5.770000
	297.600022	1446.782173	23.822000	-5.740000
	297.700027	1446.775860	23.862000	-5.850000
	297.800033	1446.774598	23.856000	-5.810000
	297.900039	1446.774598	23.856000	-5.810000
	298.000045	1446.773335	23.820000	-5.810000
	298.100050	1446.764497	23.882000	-5.870000
	298.200056	1446.767023	23.852000	-5.780000
	298.300062	1446.767023	23.834000	-5.800000
	298.400068	1446.769548	23.890000	-5.780000
	298.500073	1446.764498	23.850000	-5.840000
	298.601079	1446.758185	23.844000	-5.850000
	298.700085	1446.761973	23.858000	-5.770000
	298.800090	1446.759448	23.830000	-5.820000
	298.900096	1446.755660	23.874000	-5.830000
	299.000102	1446.760710	23.842000	-5.760000
	299.100108	1446.749348	23.824000	-5.890000
	299.200113	1446.751873	23.874000	-5.780000
	299.300119	1446.755661	23.818000	-5.770000
	299.400125	1446.756923	23.860000	-5.790000
	299.500131	1446.756923	23.860000	-5.790000
	299.600136	1446.765761	23.856000	-5.730000
	299.700142	1446.756924	23.832000	-5.870000
	299.800148	1446.753136	23.882000	-5.830000
	299.900154	1446.758186	23.816000	-5.760000
	300.000159	1446.755661	23.862000	-5.820000
	300.100165	1446.755661	23.856000	-5.800000
	300.200171	1446.749349	23.808000	-5.850000
	300.300176	1446.743036	23.880000	-5.850000
	300.400182	1446.763238	23.842000	-5.640000
	300.500188	1446.764501	23.828000	-5.790000
	300.600194	1446.767026	23.868000	-5.780000
	300.700199	1446.769551	23.828000	-5.780000
	300.800205	1446.758188	23.872000	-5.890000
	300.900210	1446.769552	23.876000	-5.710000
	301.000216	1446.769552	23.876000	-5.710000
	301.100222	1446.767026	23.844000	-5.820000
	301.200228	1446.767026	23.876000	-5.800000
	301.300233	1446.774602	23.852000	-5.740000
	301.400239	1446.761977	23.840000	-5.900000
	301.500245	1446.773340	23.862000	-5.710000
	301.600251	1446.773340	23.822000	-5.800000
	301.700256	1446.772078	23.862000	-5.810000
	301.800262	1446.780916	23.858000	-5.730000
	301.900268	1446.768291	23.850000	-5.900000
	302.000274	1446.780917	23.844000	-5.700000
	302.100279	1446.785967	23.834000	-5.760000
	302.200285	1446.779654	23.866000	-5.850000
	302.300291	1446.789755	23.854000	-5.720000
	302.400296	1446.783443	23.824000	-5.850000
	302.500302	1446.791018	23.898000	-5.740000
	302.600308	1446.791018	23.898000	-5.740000
	302.700314	1446.792281	23.812000	-5.790000
	302.800319	1446.787231	23.840000	-5.840000
	302.900325	1446.789756	23.838000	-5.780000
	303.000331	1446.784705	23.844000	-5.840000
	303.100337	1446.782180	23.856000	-5.820000
	303.200342	1446.797332	23.838000	-5.680000
	303.300348	1446.784707	23.856000	-5.900000
	303.400353	1446.787232	23.856000	-5.780000
	303.500360	1446.782182	23.808000	-5.840000
	303.600365	1446.778394	23.898000	-5.830000
	303.700371	1446.779657	23.824000	-5.790000
	303.800376	1446.775869	23.854000	-5.830000
	303.900382	1446.773344	23.858000	-5.820000
	304.000388	1446.772081	23.830000	-5.810000
	304.100394	1446.770819	23.878000	-5.810000
	304.200399	1446.774607	23.846000	-5.770000
	304.300405	1446.774607	23.846000	-5.770000
	304.400411	1446.770819	23.854000	-5.830000
	304.500416	1446.782182	23.872000	-5.710000
	304.600422	1446.779657	23.852000	-5.820000
	304.700428	1446.775870	23.856000	-5.830000
	304.800434	1446.784708	23.828000	-5.730000
	304.900439	1446.780920	23.824000	-5.830000
	305.000445	1446.784708	23.878000	-5.770000
	305.100451	1446.778395	23.848000	-5.850000
	305.200457	1446.768295	23.836000	-5.880000
	305.300462	1446.780921	23.854000	-5.700000
	305.400468	1446.780921	23.824000	-5.800000
	305.500473	1446.780921	23.874000	-5.800000
	305.600480	1446.785971	23.808000	-5.760000
	305.700485	1446.784709	23.842000	-5.810000
	305.800491	1446.784709	23.874000	-5.800000
	305.900496	1446.780921	23.824000	-5.830000
	306.000502	1446.780921	23.824000	-5.830000
	306.100508	1446.772084	23.866000	-5.870000
	306.200514	1446.775871	23.870000	-5.770000
	306.299520	1446.775871	23.832000	-5.800000
	306.399525	1446.779659	23.858000	-5.770000
	306.499531	1446.788497	23.840000	-5.730000
	306.599536	1446.785972	23.850000	-5.820000
	306.699543	1446.783447	23.858000	-5.820000
	306.799548	1446.784710	23.812000	-5.790000
	306.899554	1446.774609	23.848000	-5.880000
	306.999559	1446.784710	23.866000	-5.720000
	307.099565	1446.789761	23.846000	-5.760000
	307.199571	1446.789761	23.872000	-5.800000
	307.299577	1446.797336	23.860000	-5.740000
	307.399582	1446.796074	23.826000	-5.810000
	307.499588	1446.796074	23.826000	-5.810000
	307.599594	1446.794811	23.872000	-5.810000
	307.699599	1446.801124	23.846000	-5.750000
	307.799605	1446.801124	23.858000	-5.800000
	307.899611	1446.803649	23.868000	-5.780000
	307.999617	1446.807437	23.804000	-5.770000
	308.099622	1446.798599	23.842000	-5.870000
	308.199628	1446.806175	23.846000	-5.740000
	308.299634	1446.809962	23.862000	-5.770000
	308.399640	1446.801125	23.876000	-5.870000
	308.499645	1446.812488	23.834000	-5.710000
	308.599651	1446.811226	23.828000	-5.810000
	308.699656	1446.802388	23.868000	-5.870000
	308.799663	1446.812489	23.848000	-5.720000
	308.899668	1446.807439	23.840000	-5.840000
	308.999674	1446.802388	23.870000	-5.840000
	309.099679	1446.808701	23.818000	-5.750000
	309.199685	1446.808701	23.818000	-5.750000
	309.299691	1446.804914	23.834000	-5.830000
	309.399697	1446.799864	23.868000	-5.840000
	309.499702	1446.808702	23.840000	-5.730000
	309.599708	1446.793552	23.848000	-5.920000
	309.699714	1446.796077	23.856000	-5.780000
	309.799720	1446.807440	23.846000	-5.710000
	309.899725	1446.801128	23.834000	-5.850000
	309.999731	1446.799865	23.858000	-5.810000
	310.099737	1446.804915	23.852000	-5.760000
	310.199742	1446.797340	23.828000	-5.860000
	310.299748	1446.803653	23.848000	-5.750000
	310.399754	1446.815017	23.818000	-5.710000
	310.499760	1446.809966	23.842000	-5.840000
	310.599765	1446.812492	23.888000	-5.780000
	310.699771	1446.812492	23.888000	-5.780000
	310.799777	1446.816279	23.842000	-5.770000
	310.899783	1446.804917	23.858000	-5.890000
	310.999788	1446.807442	23.854000	-5.780000
	311.099794	1446.812492	23.836000	-5.760000
	311.199800	1446.802392	23.856000	-5.880000
	311.299806	1446.809968	23.848000	-5.740000
	311.399811	1446.808705	23.832000	-5.810000
	311.499817	1446.797342	23.860000	-5.890000
	311.599823	1446.813757	23.864000	-5.670000
	311.699828	1446.808706	23.808000	-5.840000
	311.799834	1446.806181	23.864000	-5.820000
	311.899840	1446.808706	23.850000	-5.780000
	311.999846	1446.801131	23.828000	-5.860000
	312.099851	1446.801131	23.828000	-5.860000
	312.199857	1446.803656	23.872000	-5.780000
	312.299862	1446.808707	23.856000	-5.760000
	312.399868	1446.806181	23.800000	-5.820000
	312.499874	1446.812494	23.878000	-5.750000
	312.599880	1446.821333	23.836000	-5.730000
	312.699885	1446.815020	23.832000	-5.850000
	312.799891	1446.817545	23.882000	-5.780000
	312.899897	1446.823858	23.816000	-5.750000
	312.999903	1446.818808	23.854000	-5.840000
	313.099908	1446.825121	23.874000	-5.750000
	313.199914	1446.828909	23.796000	-5.770000
	313.299920	1446.816283	23.886000	-5.900000
	313.399926	1446.826385	23.848000	-5.720000
	313.499931	1446.832698	23.820000	-5.750000
	313.599937	1446.826385	23.848000	-5.850000
	313.699943	1446.827647	23.852000	-5.790000
	313.799948	1446.827647	23.852000	-5.790000
	313.899954	1446.818809	23.798000	-5.870000
	313.999960	1446.818809	23.870000	-5.800000
	314.099966	1446.827648	23.854000	-5.730000
	314.199971	1446.821335	23.848000	-5.850000
	314.299977	1446.821335	23.864000	-5.800000
	314.399983	1446.828911	23.836000	-5.740000
	314.499989	1446.817548	23.834000	-5.890000
	314.599994	1446.816285	23.866000	-5.810000
	314.700000	1446.823861	23.830000	-5.740000
	314.800005	1446.812498	23.826000	-5.890000
	314.900012	1446.817548	23.876000	-5.760000
	315.000017	1446.825124	23.816000	-5.740000
	315.100023	1446.818811	23.858000	-5.850000
	315.200028	1446.823862	23.866000	-5.760000
	315.300034	1446.832700	23.840000	-5.730000
	315.400040	1446.832700	23.840000	-5.730000
	315.500046	1446.822600	23.858000	-5.880000
	315.600051	1446.833964	23.858000	-5.710000
	315.700057	1446.839014	23.828000	-5.760000
	315.800063	1446.822601	23.846000	-5.930000
	315.900068	1446.825126	23.858000	-5.780000
	316.000074	1446.827652	23.834000	-5.780000
	316.100080	1446.821339	23.844000	-5.850000
	316.200086	1446.827652	23.868000	-5.750000
	316.300091	1446.825127	23.830000	-5.820000
	316.400097	1446.820076	23.868000	-5.840000
	316.500103	1446.820076	23.894000	-5.800000
	316.600109	1446.826389	23.830000	-5.750000
	316.700114	1446.823864	23.848000	-5.820000
	316.800120	1446.820076	23.882000	-5.830000
	316.900126	1446.826390	23.832000	-5.750000
	317.000132	1446.826390	23.832000	-5.750000
	317.100137	1446.815027	23.820000	-5.890000
	317.200143	1446.826390	23.858000	-5.710000
	317.300148	1446.831441	23.824000	-5.760000
	317.400154	1446.820078	23.832000	-5.890000
	317.500160	1446.825128	23.858000	-5.760000
	317.600166	1446.830179	23.852000	-5.760000
	317.700171	1446.830179	23.820000	-5.800000
	317.800177	1446.837755	23.872000	-5.740000
	317.900183	1446.832704	23.802000	-5.840000
	318.000189	1446.822604	23.844000	-5.880000
	318.100194	1446.821341	23.844000	-5.810000
	318.200200	1446.825129	23.800000	-5.770000
	318.300206	1446.817554	23.868000	-5.860000
	318.400211	1446.832706	23.856000	-5.680000
	318.500217	1446.837756	23.838000	-5.760000
	318.600223	1446.837756	23.838000	-5.760000
	318.700229	1446.835231	23.838000	-5.820000
	318.800234	1446.844069	23.844000	-5.730000
	318.900240	1446.851645	23.852000	-5.740000
	319.000246	1446.842807	23.824000	-5.870000
	319.100252	1446.845332	23.866000	-5.780000
	319.200257	1446.842807	23.828000	-5.820000
	319.300263	1446.836494	23.818000	-5.850000
	319.400269	1446.821344	23.880000	-5.920000
	319.500275	1446.830182	23.806000	-5.730000
	319.600280	1446.826394	23.856000	-5.830000
	319.700286	1446.825132	23.864000	-5.810000
	319.800292	1446.836496	23.832000	-5.710000
	319.900297	1446.835233	23.840000	-5.810000
	320.000303	1446.837758	23.876000	-5.780000
	320.100309	1446.837758	23.876000	-5.780000
	320.200315	1446.852910	23.858000	-5.680000
	320.300320	1446.847860	23.834000	-5.840000
	320.400326	1446.844072	23.890000	-5.830000
	320.500332	1446.846597	23.846000	-5.780000
	320.600338	1446.845335	23.840000	-5.810000
	320.700343	1446.849123	23.896000	-5.770000
	320.800349	1446.846597	23.854000	-5.820000
	320.900354	1446.863012	23.806000	-5.670000
	321.000360	1446.845337	23.874000	-5.940000
	321.100366	1446.856701	23.830000	-5.710000
	321.200372	1446.851650	23.840000	-5.840000
	321.300377	1446.839025	23.844000	-5.900000
	321.400383	1446.845338	23.842000	-5.750000
	321.500389	1446.849126	23.824000	-5.770000
	321.600395	1446.849126	23.824000	-5.770000
	321.700400	1446.837763	23.844000	-5.890000
	321.800406	1446.839025	23.842000	-5.790000
	321.900412	1446.839025	23.818000	-5.800000
	322.000418	1446.835237	23.864000	-5.830000
	322.100423	1446.837763	23.852000	-5.780000
	322.200429	1446.839025	23.832000	-5.790000
	322.300435	1446.828925	23.820000	-5.880000
	322.400440	1446.835238	23.844000	-5.750000
	322.500446	1446.832713	23.812000	-5.820000
	322.600452	1446.827662	23.860000	-5.840000
	322.700458	1446.831450	23.836000	-5.770000
	322.800463	1446.837763	23.834000	-5.750000
	322.900469	1446.822613	23.824000	-5.920000
	323.000475	1446.825138	23.860000	-5.780000
	323.100481	1446.836502	23.848000	-5.710000
	323.200486	1446.836502	23.848000	-5.710000
	323.300492	1446.830189	23.836000	-5.850000
	323.400497	1446.832714	23.860000	-5.780000
	323.500504	1446.844078	23.836000	-5.710000
	323.600509	1446.839028	23.828000	-5.840000
	323.700515	1446.837765	23.864000	-5.810000
	323.799520	1446.840290	23.838000	-5.780000
	323.899526	1446.830190	23.826000	-5.880000
	323.999532	1446.830190	23.848000	-5.800000
	324.099537	1446.850393	23.832000	-5.640000
	324.199543	1446.849130	23.836000	-5.810000
	324.299549	1446.844080	23.862000	-5.840000
	324.399555	1446.856707	23.842000	-5.700000
	324.499560	1446.852919	23.838000	-5.830000
	324.599566	1446.842818	23.862000	-5.880000
	324.699572	1446.845343	23.850000	-5.780000
	324.799578	1446.842818	23.842000	-5.820000
	324.899583	1446.842818	23.842000	-5.820000
	324.999589	1446.828930	23.878000	-5.910000
	325.099595	1446.831455	23.868000	-5.780000
	325.199600	1446.831455	23.830000	-5.800000
	325.299606	1446.831455	23.870000	-5.800000
	325.399612	1446.839031	23.876000	-5.740000
	325.499618	1446.841556	23.840000	-5.780000
	325.599623	1446.837769	23.828000	-5.830000
	325.699629	1446.844082	23.856000	-5.750000
	325.799635	1446.844082	23.822000	-5.800000
	325.899641	1446.835244	23.830000	-5.870000
	325.999646	1446.831456	23.866000	-5.830000
	326.099652	1446.836506	23.822000	-5.760000
	326.199657	1446.828931	23.822000	-5.860000
	326.299664	1446.833982	23.876000	-5.760000
	326.399669	1446.839032	23.814000	-5.760000
	326.499675	1446.839032	23.814000	-5.760000
	326.599680	1446.832719	23.838000	-5.850000
	326.699686	1446.830194	23.860000	-5.820000
	326.799692	1446.844083	23.832000	-5.690000
	326.899698	1446.840295	23.834000	-5.830000
	326.999703	1446.842821	23.846000	-5.780000
	327.099709	1446.854185	23.840000	-5.710000
	327.199715	1446.854185	23.822000	-5.800000
	327.299721	1446.859235	23.882000	-5.760000
	327.399726	1446.857973	23.834000	-5.810000
	327.499732	1446.859235	23.816000	-5.790000
	327.599738	1446.849135	23.872000	-5.880000
	327.699743	1446.880704	23.600000	-5.550000
	327.799749	1446.606839	23.688000	-7.970000
	327.899755	1446.729355	24.028000	-4.830000
	328.004761	1446.748294	23.774000	-5.650000
	328.099766	1446.748294	23.774000	-5.650000
	328.199772	1446.735669	23.926000	-5.900000
	328.299778	1446.734407	24.108000	-5.810000
	328.399784	1446.778602	24.194000	-5.450000
	328.499789	1446.855641	24.356000	-5.190000
	328.599795	1446.916261	24.108000	-5.320000
	328.699800	1446.922575	24.356000	-5.750000
	328.799807	1446.950356	24.440000	-5.580000
	328.899812	1446.878398	25.118000	-6.370000
	328.999818	1446.927650	25.358000	-5.410000
	329.099823	1447.240063	25.180000	-3.330000
	329.199829	1447.470181	25.484000	-3.980000
	329.299835	1447.649697	24.304000	-4.380000
	329.399841	1447.584018	24.962000	-6.320000
	329.499846	1447.506977	25.518000	-6.410000
	329.599852	1447.389538	25.656000	-6.730000
	329.699858	1447.389538	25.656000	-6.730000
	329.799864	1447.365541	26.378000	-5.990000
	329.899869	1447.512151	26.648000	-4.640000
	329.999875	1447.676487	26.368000	-4.500000
	330.099881	1447.830720	26.328000	-4.580000
	330.199886	1447.983703	24.910000	-4.590000
	330.299892	1448.303957	25.852000	-3.270000
	330.399898	1448.527908	26.032000	-4.030000
	330.499904	1448.800068	25.596000	-3.650000
	330.599909	1449.104001	25.740000	-3.400000
	330.699915	1449.373731	25.468000	-3.670000
	330.799921	1449.547148	25.544000	-4.430000
	330.899927	1449.669914	25.398000	-4.830000
	330.999932	1449.677504	25.332000	-5.740000
	331.099938	1449.528280	25.338000	-6.980000
	331.199944	1449.392978	25.666000	-6.870000
	331.299949	1449.392978	25.666000	-6.870000
	331.399955	1449.510666	25.406000	-4.870000
	331.499961	1449.228717	27.074000	-8.030000
	331.599967	1448.996120	27.108000	-7.640000
	331.699972	1448.804001	27.104000	-7.320000
	331.799978	1448.648549	27.112000	-7.030000
	331.899984	1448.525963	27.118000	-6.770000
	331.999990	1448.414758	27.126000	-6.680000
	332.099995	1448.328829	27.178000	-6.480000
	332.200001	1448.258065	27.166000	-6.360000
	332.300006	1448.202466	27.170000	-6.240000
	332.400012	1448.160766	27.150000	-6.130000
	332.500018	1448.111487	27.116000	-6.190000
	332.600024	1448.083688	27.144000	-6.020000
	332.700029	1448.047045	27.166000	-6.090000
	332.800035	1448.029355	27.162000	-5.940000
	332.900041	1448.012929	27.164000	-5.930000
	333.000047	1448.012929	27.164000	-5.930000
	333.100052	1448.001556	27.134000	-5.890000
	333.200058	1447.993975	27.126000	-5.860000
	333.300064	1447.983866	27.148000	-5.880000
	333.400070	1447.964913	27.196000	-5.950000
	333.500075	1447.961123	27.160000	-5.830000
	333.600081	1447.959859	27.144000	-5.810000
	333.700087	1447.954805	27.140000	-5.840000
	333.800092	1447.944697	27.136000	-5.880000
	333.900098	1447.934588	27.128000	-5.880000
	334.000104	1447.935852	27.142000	-5.790000
	334.100110	1447.932061	27.196000	-5.830000
	334.200115	1447.932061	27.138000	-5.800000
	334.300121	1447.933325	27.132000	-5.790000
	334.400127	1447.927007	27.138000	-5.850000
	334.500133	1447.927007	27.138000	-5.850000
	334.600138	1447.921953	27.154000	-5.840000
	334.700144	1447.915635	27.176000	-5.850000
	334.800149	1447.924480	27.166000	-5.730000
	334.900155	1447.920690	27.114000	-5.830000
	335.000161	1447.916899	27.156000	-5.830000
	335.100167	1447.913109	27.148000	-5.830000
	335.200172	1447.915636	27.198000	-5.780000
	335.300178	1447.925745	27.164000	-5.720000
	335.400184	1447.927008	27.160000	-5.790000
	335.500190	1447.920690	27.138000	-5.850000
	335.600195	1447.914373	27.170000	-5.850000
	335.700201	1447.906792	27.158000	-5.860000
	335.800207	1447.914373	27.176000	-5.740000
	335.900212	1447.913110	27.208000	-5.810000
	336.000218	1447.913110	27.208000	-5.810000
	336.100224	1447.919428	27.142000	-5.750000
	336.200230	1447.916900	27.094000	-5.820000
	336.300235	1447.918164	27.120000	-5.790000
	336.400241	1447.911846	27.170000	-5.850000
	336.500247	1447.905529	27.148000	-5.850000
	336.600253	1447.911847	27.166000	-5.750000
	336.700258	1447.919428	27.126000	-5.740000
	336.800264	1447.918165	27.148000	-5.810000
	336.900270	1447.913110	27.134000	-5.840000
	337.000276	1447.916901	27.188000	-5.770000
	337.100281	1447.914374	27.160000	-5.820000
	337.200287	1447.921956	27.128000	-5.740000
	337.300292	1447.812060	26.038000	-6.670000
	337.400298	1447.791846	27.320000	-5.960000
	337.500304	1447.791846	27.320000	-5.960000
	337.600310	1447.825963	27.126000	-5.530000
	337.700315	1447.844916	27.170000	-5.650000
	337.800321	1447.860079	27.178000	-5.680000
	337.900327	1447.875242	27.140000	-5.680000
	338.000333	1447.882823	27.134000	-5.740000
	338.100338	1447.885350	27.138000	-5.780000
	338.200344	1447.882823	27.198000	-5.820000
	338.300350	1447.896722	27.170000	-5.690000
	338.400355	1447.905567	27.164000	-5.730000
	338.501361	1447.915676	27.126000	-5.720000
	338.600367	1447.911885	27.140000	-5.830000
	338.700373	1447.913149	27.172000	-5.790000
	338.800378	1447.911885	27.158000	-5.810000
	338.900384	1447.921994	27.160000	-5.720000
	339.000390	1447.921994	27.160000	-5.720000
	339.100396	1447.932103	27.154000	-5.720000
	339.200401	1447.932103	27.146000	-5.800000
	339.300407	1447.929576	27.126000	-5.820000
	339.400413	1447.927049	27.168000	-5.820000
	339.500418	1447.923258	27.156000	-5.830000
	339.600424	1447.921995	27.182000	-5.810000
	339.700430	1447.930840	27.144000	-5.730000
	339.800436	1447.932103	27.126000	-5.790000
	339.900441	1447.925786	27.150000	-5.850000
	340.000447	1447.923258	27.174000	-5.820000
	340.100453	1447.928313	27.152000	-5.760000
	340.200459	1447.933367	27.166000	-5.760000
	340.300464	1447.930840	27.130000	-5.820000
	340.403470	1447.923259	27.142000	-5.860000
	340.500475	1447.921995	27.168000	-5.810000
	340.600482	1447.921995	27.180000	-5.800000
	340.700487	1447.921995	27.180000	-5.800000
	340.800493	1447.924522	27.140000	-5.780000
	340.900498	1447.938422	27.154000	-5.690000
	341.000504	1447.929577	27.150000	-5.870000
	341.100510	1447.929577	27.146000	-5.800000
	341.200516	1447.937159	27.176000	-5.740000
	341.299521	1447.947268	27.156000	-5.720000
	341.399527	1447.942214	27.140000	-5.840000
	341.499533	1447.937160	27.120000	-5.840000
	341.599538	1447.935896	27.144000	-5.810000
	341.699544	1447.932105	27.182000	-5.830000
	341.799550	1447.934632	27.160000	-5.780000
	341.899556	1447.935896	27.120000	-5.790000
	341.999561	1447.927051	27.150000	-5.870000
	342.099567	1447.925788	27.154000	-5.810000
	342.199573	1447.925788	27.188000	-5.800000
	342.299579	1447.925788	27.188000	-5.800000
	342.399584	1447.934633	27.160000	-5.730000
	342.499590	1447.934633	27.138000	-5.800000
	342.599596	1447.929579	27.134000	-5.840000
	342.699601	1447.930842	27.164000	-5.790000
	342.799607	1447.934633	27.178000	-5.770000
	342.899613	1447.935897	27.164000	-5.790000
	342.999619	1447.944742	27.162000	-5.730000
	343.099624	1447.938424	27.126000	-5.850000
	343.199630	1447.923262	27.176000	-5.920000
	343.299636	1447.927053	27.192000	-5.770000
	343.399642	1447.930844	27.140000	-5.770000
	343.499647	1447.927053	27.102000	-5.830000
	343.599653	1447.916945	27.150000	-5.880000
	343.699658	1447.915681	27.156000	-5.810000
	343.799664	1447.921999	27.166000	-5.750000
	343.899670	1447.921999	27.166000	-5.750000
	343.999676	1447.927053	27.148000	-5.760000
	344.099681	1447.919472	27.138000	-5.860000
	344.199687	1447.911891	27.182000	-5.860000
	344.299693	1447.918209	27.184000	-5.750000
	344.399699	1447.927054	27.170000	-5.730000
	344.499704	1447.932108	27.124000	-5.760000
	344.599710	1447.925791	27.150000	-5.850000
	344.699716	1447.923264	27.192000	-5.820000
	344.799722	1447.923264	27.164000	-5.800000
	344.899727	1447.933373	27.136000	-5.720000
	344.999733	1447.924528	27.130000	-5.870000
	345.099739	1447.911893	27.162000	-5.900000
	345.199744	1447.914420	27.174000	-5.780000
	345.299750	1447.913156	27.184000	-5.810000
	345.399756	1447.913156	27.184000	-5.810000
	345.499762	1447.873992	27.146000	-6.110000
	345.599767	1447.886627	27.118000	-5.700000
	345.699773	1447.892945	27.172000	-5.750000
	345.799779	1447.899263	27.156000	-5.750000
	345.899785	1447.908108	27.156000	-5.730000
	345.999790	1447.905581	27.118000	-5.820000
	346.099796	1447.905581	27.206000	-5.800000
	346.199801	1447.909371	27.178000	-5.770000
	346.299807	1447.914426	27.146000	-5.760000
	346.399813	1447.915689	27.138000	-5.790000
	346.499819	1447.909371	27.162000	-5.850000
	346.599824	1447.911899	27.166000	-5.780000
	346.699830	1447.922007	27.168000	-5.720000
	346.799836	1447.933380	27.138000	-5.710000
	346.899842	1447.925799	27.134000	-5.860000
	346.999847	1447.913164	27.174000	-5.900000
	347.099853	1447.913164	27.174000	-5.900000
	347.199859	1447.916954	27.166000	-5.770000
	347.299864	1447.928327	27.138000	-5.710000
	347.399870	1447.929590	27.120000	-5.790000
	347.499876	1447.923272	27.162000	-5.850000
	347.599882	1447.924536	27.164000	-5.790000
	347.699887	1447.933381	27.144000	-5.730000
	347.799893	1447.935908	27.154000	-5.780000
	347.899899	1447.922010	27.152000	-5.910000
	347.999905	1447.923273	27.152000	-5.790000
	348.099910	1447.918219	27.152000	-5.840000
	348.199916	1447.920746	27.132000	-5.780000
	348.299922	1447.924537	27.150000	-5.770000
	348.399928	1447.920746	27.160000	-5.830000
	348.499933	1447.919483	27.166000	-5.810000
	348.599939	1447.928328	27.166000	-5.730000
	348.699944	1447.928328	27.166000	-5.730000
	348.799950	1447.925801	27.128000	-5.820000
	348.899956	1447.925801	27.170000	-5.800000
	348.999962	1447.925801	27.186000	-5.800000
	349.099967	1447.932119	27.190000	-5.750000
	349.199973	1447.937173	27.130000	-5.760000
	349.299979	1447.937173	27.156000	-5.800000
	349.399985	1447.928328	27.130000	-5.870000
	349.499990	1447.924538	27.160000	-5.830000
	349.599996	1447.930856	27.170000	-5.750000
	349.700002	1447.935910	27.160000	-5.760000
	349.800007	1447.933383	27.142000	-5.820000
	349.900013	1447.925802	27.172000	-5.860000
	350.000019	1447.924538	27.164000	-5.810000
	350.100025	1447.928329	27.162000	-5.770000
	350.200030	1447.933383	27.156000	-5.760000
	350.300036	1447.933383	27.156000	-5.760000
	350.400042	1447.930856	27.138000	-5.820000
	350.500048	1447.918221	27.186000	-5.900000
	350.600053	1447.913167	27.154000	-5.840000
	350.700059	1447.920748	27.162000	-5.740000
	350.800065	1447.923276	27.124000	-5.780000
	350.900070	1447.923276	27.152000	-5.800000
	351.000076	1447.911904	27.148000	-5.890000
	351.100082	1447.913168	27.194000	-5.790000
	351.200088	1447.914431	27.140000	-5.790000
	351.300093	1447.925804	27.150000	-5.710000
	351.400099	1447.915695	27.132000	-5.880000
	351.500105	1447.911905	27.168000	-5.830000
	351.600111	1447.915696	27.168000	-5.770000
	351.700116	1447.920750	27.174000	-5.760000
	351.800122	1447.928331	27.148000	-5.740000
	351.900127	1447.928331	27.148000	-5.740000
	352.000134	1447.935913	27.154000	-5.740000
	352.100139	1447.924541	27.146000	-5.890000
	352.200145	1447.922014	27.180000	-5.820000
	352.300150	1447.927068	27.164000	-5.760000
	352.400156	1447.925805	27.162000	-5.810000
	352.500162	1447.929596	27.142000	-5.770000
	352.600168	1447.928332	27.130000	-5.810000
	352.700173	1447.922014	27.168000	-5.850000
	352.800179	1447.924542	27.178000	-5.780000
	352.900185	1447.925805	27.160000	-5.790000
	353.000191	1447.916960	27.128000	-5.870000
	353.100196	1447.919488	27.114000	-5.780000
	353.200202	1447.911906	27.162000	-5.860000
	353.300208	1447.910643	27.166000	-5.810000
	353.400213	1447.918224	27.164000	-5.740000
	353.500219	1447.918224	27.164000	-5.740000
	353.600225	1447.928333	27.150000	-5.720000
	353.700231	1447.925806	27.148000	-5.820000
	353.800236	1447.924542	27.168000	-5.810000
	353.900242	1447.920752	27.158000	-5.830000
	354.000247	1447.922015	27.206000	-5.790000
	354.100254	1447.919488	27.174000	-5.820000
	354.200259	1447.923279	27.132000	-5.770000
	354.300265	1447.919488	27.130000	-5.830000
	354.400270	1447.914434	27.168000	-5.840000
	354.500276	1447.918225	27.152000	-5.770000
	354.600282	1447.920752	27.180000	-5.780000
	354.700288	1447.922016	27.126000	-5.790000
	354.800293	1447.922016	27.154000	-5.800000
	354.900299	1447.920752	27.140000	-5.810000
