LabVIEW Measurement	
Writer_Version	2
Reader_Version	2
Separator	Tab
Decimal_Separator	.
Multi_Headings	No
X_Columns	No
Time_Pref	Relative
Operator	Herve
Date	2023/08/01
Time	17:46:46.9164776802062988281
***End_of_Header***	
	
Channels	4				
Samples	3861	3861	3861	3861	
Date	1904/01/01	1904/01/01	1904/01/01	1904/01/01	
Time	09:00:00	09:00:00	09:00:00	09:00:00	
Y_Unit_Label	s	Hz	mV	°	
X_Dimension	Time	Time	Time	Time	
X0	0.0000000000000000E+0	0.0000000000000000E+0	0.0000000000000000E+0	0.0000000000000000E+0	
Delta_X	1.000000	1.000000	1.000000	1.000000	
***End_of_Header***					
X_Value	Time	Res.Frequency	Amplitude	Phase	Comment
	0.050003	1361.712701	11.822000	-4.880000
	0.155009	1361.730527	11.794000	-4.750000
	0.250014	1361.736469	11.830000	-4.850000
	0.350020	1361.736469	11.830000	-4.850000
	0.450026	1361.737657	11.802000	-4.890000
	0.550031	1361.735281	11.820000	-4.920000
	0.650037	1361.731716	11.816000	-4.930000
	0.750043	1361.730527	11.826000	-4.910000
	0.850049	1361.724586	11.814000	-4.950000
	0.950054	1361.726963	11.804000	-4.880000
	1.050060	1361.729339	11.802000	-4.880000
	1.162066	1361.726963	11.816000	-4.920000
	1.250072	1361.734093	11.824000	-4.840000
	1.350077	1361.734093	11.824000	-4.840000
	1.450083	1361.728151	11.820000	-4.950000
	1.550088	1361.723398	11.804000	-4.940000
	1.650095	1361.721021	11.802000	-4.920000
	1.757101	1361.724586	11.834000	-4.870000
	1.850106	1361.719833	11.800000	-4.940000
	1.957112	1361.728152	11.808000	-4.830000
	2.061118	1361.725775	11.826000	-4.920000
	2.178124	1361.736470	11.824000	-4.810000
	2.251129	1361.736470	11.824000	-4.810000
	2.350134	1361.742412	11.798000	-4.850000
	2.451140	1361.732906	11.822000	-4.980000
	2.600149	1361.728153	11.816000	-4.940000
	2.700154	1361.735283	11.842000	-4.840000
	2.800160	1361.730529	11.834000	-4.940000
	2.900166	1361.713894	11.834000	-5.040000
	3.000172	1361.707952	11.808000	-4.950000
	3.100177	1361.711517	11.822000	-4.870000
	3.200183	1361.703199	11.818000	-4.970000
	3.300189	1361.705576	11.796000	-4.880000
	3.400194	1361.707953	11.808000	-4.880000
	3.508201	1361.715083	11.798000	-4.840000
	3.600206	1361.725778	11.806000	-4.810000
	3.700212	1361.736473	11.790000	-4.810000
	3.800217	1361.736473	11.790000	-4.810000
	3.900223	1361.737662	11.830000	-4.890000
	4.001229	1361.731720	11.820000	-4.950000
	4.100235	1361.735285	11.816000	-4.870000
	4.200240	1361.734097	11.802000	-4.910000
	4.300246	1361.729344	11.818000	-4.940000
	4.401252	1361.735285	11.818000	-4.850000
	4.500257	1361.721026	11.814000	-5.020000
	4.601263	1361.721026	11.824000	-4.900000
	4.700269	1361.719838	11.822000	-4.910000
	4.800274	1361.719838	11.822000	-4.910000
	4.900280	1361.710331	11.808000	-4.980000
	5.000286	1361.698449	11.826000	-5.000000
	5.100292	1361.705579	11.810000	-4.840000
	5.200297	1361.719839	11.826000	-4.780000
	5.300303	1361.706768	11.810000	-5.010000
	5.410309	1361.719840	11.798000	-4.790000
	5.500315	1361.724594	11.828000	-4.860000
	5.600320	1361.729347	11.826000	-4.860000
	5.700326	1361.734101	11.842000	-4.860000
	5.800332	1361.734101	11.842000	-4.860000
	5.950340	1361.735289	11.824000	-4.890000
	6.050346	1361.718653	11.826000	-5.040000
	6.150352	1361.712712	11.818000	-4.950000
	6.250358	1361.715088	11.814000	-4.880000
	6.350363	1361.707959	11.810000	-4.960000
	6.450369	1361.713900	11.814000	-4.850000
	6.550375	1361.725784	11.814000	-4.800000
	6.650380	1361.723408	11.830000	-4.920000
	6.750386	1361.719843	11.820000	-4.930000
	6.853392	1361.717466	11.826000	-4.920000
	6.950397	1361.707960	11.828000	-4.980000
	7.050403	1361.704395	11.824000	-4.930000
	7.150409	1361.707960	11.802000	-4.870000
	7.250415	1361.713901	11.812000	-4.850000
	7.350420	1361.713901	11.812000	-4.850000
	7.450426	1361.721032	11.814000	-4.840000
	7.550432	1361.716278	11.810000	-4.940000
	7.650437	1361.721032	11.808000	-4.860000
	7.750443	1361.723408	11.820000	-4.880000
	7.850449	1361.715090	11.822000	-4.970000
	7.950455	1361.722220	11.806000	-4.840000
	8.050460	1361.723409	11.826000	-4.890000
	8.150466	1361.721032	11.836000	-4.920000
	8.250472	1361.719844	11.806000	-4.910000
	8.350478	1361.715091	11.832000	-4.940000
	8.450483	1361.718656	11.812000	-4.870000
	8.550489	1361.717467	11.806000	-4.910000
	8.650495	1361.725786	11.822000	-4.830000
	8.750501	1361.726974	11.816000	-4.890000
	8.850506	1361.726974	11.820000	-4.900000
	8.953512	1361.731728	11.816000	-4.860000
	9.050518	1361.731728	11.816000	-4.860000
	9.150523	1361.732916	11.830000	-4.890000
	9.250529	1361.723410	11.822000	-4.980000
	9.350535	1361.712715	11.816000	-4.990000
	9.450541	1361.718657	11.806000	-4.850000
	9.550546	1361.728164	11.810000	-4.820000
	9.650552	1361.725787	11.830000	-4.920000
	9.749557	1361.735294	11.826000	-4.820000
	9.849563	1361.721035	11.816000	-5.020000
	9.949569	1361.709152	11.824000	-5.000000
	10.049575	1361.705587	11.804000	-4.930000
	10.149580	1361.709152	11.814000	-4.870000
	10.250587	1361.715094	11.816000	-4.850000
	10.349592	1361.715094	11.816000	-4.850000
	10.449597	1361.709152	11.824000	-4.950000
	10.549603	1361.717471	11.824000	-4.830000
	10.656610	1361.719847	11.814000	-4.880000
	10.750615	1361.721036	11.824000	-4.890000
	10.849620	1361.721036	11.824000	-4.900000
	10.949626	1361.726977	11.826000	-4.850000
	11.049632	1361.723413	11.824000	-4.930000
	11.149638	1361.716283	11.804000	-4.960000
	11.249643	1361.721036	11.806000	-4.860000
	11.349649	1361.721036	11.806000	-4.900000
	11.449655	1361.713906	11.820000	-4.960000
	11.549661	1361.713906	11.814000	-4.900000
	11.649666	1361.719848	11.820000	-4.850000
	11.749672	1361.713907	11.810000	-4.950000
	11.849678	1361.713907	11.810000	-4.950000
	11.949683	1361.705589	11.828000	-4.970000
	12.049689	1361.698459	11.826000	-4.960000
	12.199697	1361.700836	11.836000	-4.880000
	12.299704	1361.707966	11.808000	-4.840000
	12.399709	1361.710342	11.818000	-4.880000
	12.499715	1361.706777	11.826000	-4.930000
	12.599720	1361.704401	11.788000	-4.920000
	12.700727	1361.713908	11.810000	-4.820000
	12.799732	1361.710343	11.822000	-4.930000
	12.899738	1361.711531	11.814000	-4.890000
	13.001744	1361.716284	11.816000	-4.860000
	13.099749	1361.726980	11.816000	-4.810000
	13.199755	1361.755503	11.880000	-4.660000
	13.299761	1361.755503	11.880000	-4.660000
	13.399766	1361.765010	11.826000	-4.820000
	13.499772	1361.893429	11.804000	-3.820000
	13.599778	1361.803129	11.664000	-5.660000
	13.699783	1361.989882	11.386000	-3.330000
	13.799789	1361.964925	11.312000	-5.110000
	13.899795	1361.896005	11.770000	-5.480000
	14.008801	1361.818772	11.846000	-5.550000
	14.099806	1361.792630	11.698000	-5.120000
	14.199812	1361.859198	11.830000	-4.340000
	14.299818	1361.859198	11.830000	-4.340000
	14.399824	1361.846125	11.856000	-5.010000
	14.549832	1361.829488	11.588000	-5.040000
	14.649838	1361.872279	11.600000	-4.540000
	14.749844	1361.847323	11.812000	-5.110000
	14.849849	1361.779597	11.830000	-5.470000
	14.949855	1361.742762	11.646000	-5.210000
	15.049861	1361.767720	11.790000	-4.690000
	15.149867	1361.739202	11.702000	-5.140000
	15.249872	1361.759405	11.784000	-4.730000
	15.351878	1361.759405	11.784000	-4.730000
	15.399881	1361.730887	11.848000	-5.140000
	15.549890	1361.708311	11.768000	-5.090000
	15.649895	1361.679794	11.966000	-5.140000
	15.749901	1361.691677	11.836000	-4.800000
	15.849906	1362.659242	10.698000	3.160000
	15.949912	1364.281960	10.334000	8.420000
	16.049918	1365.598175	10.586000	5.970000
	16.149924	1366.561171	10.546000	3.100000
	16.249929	1367.402718	10.392000	2.100000
	16.349935	1367.402718	10.392000	2.100000
	16.449941	1368.112298	10.306000	1.010000
	16.549947	1368.779824	10.088000	0.660000
	16.649952	1369.155784	10.306000	-1.760000
	16.749958	1369.111583	10.156000	-5.270000
	16.849964	1369.505663	10.148000	-1.610000
	16.949969	1369.889035	10.116000	-1.700000
	17.049975	1370.323053	10.160000	-1.280000
	17.149981	1370.839199	9.860000	-0.600000
	17.255987	1371.094362	9.722000	-2.770000
	17.361993	1371.333969	9.706000	-2.900000
	17.449998	1371.333969	9.706000	-2.900000
	17.550004	1371.498048	9.710000	-3.530000
	17.650010	1371.644165	9.536000	-3.680000
	17.750015	1371.595097	9.564000	-5.310000
	17.850021	1371.557996	9.690000	-5.210000
	17.950027	1371.361790	9.878000	-6.540000
	18.050033	1371.286413	9.654000	-5.530000
	18.150038	1371.063934	9.762000	-6.760000
	18.253044	1370.846274	9.744000	-6.720000
	18.350049	1370.604737	9.702000	-6.920000
	18.450055	1370.604737	9.702000	-6.920000
	18.551061	1370.378782	9.736000	-6.790000
	18.650067	1370.108639	9.768000	-7.160000
	18.750072	1369.881572	9.772000	-6.800000
	18.850078	1369.644983	9.794000	-6.880000
	18.950084	1369.478913	9.814000	-6.290000
	19.050089	1369.360638	9.822000	-5.890000
	19.200098	1369.262677	9.850000	-5.720000
	19.300104	1369.198165	9.842000	-5.440000
	19.350107	1369.163519	9.812000	-5.190000
	19.500115	1369.106178	9.784000	-5.380000
	19.600121	1369.040479	9.782000	-5.450000
	19.650124	1369.040479	9.782000	-5.450000
	19.801133	1368.956871	9.770000	-5.600000
	19.900138	1368.864909	9.786000	-5.670000
	20.003144	1368.763401	9.846000	-5.750000
	20.100150	1368.758624	9.794000	-4.940000
	20.200155	1368.818361	9.828000	-4.400000
	20.300161	1368.775365	9.768000	-5.260000
	20.400167	1368.709682	9.776000	-5.450000
	20.500173	1368.634451	9.804000	-5.530000
	20.600178	1368.555643	9.844000	-5.560000
	20.650181	1368.555643	9.844000	-5.560000
	20.800189	1368.534147	9.882000	-5.080000
	20.900196	1368.517428	9.818000	-5.040000
	21.000201	1368.473247	9.784000	-5.270000
	21.100207	1368.375350	9.784000	-5.720000
	21.200212	1368.281040	9.906000	-5.690000
	21.300218	1368.335978	9.788000	-4.440000
	21.400224	1368.313292	9.828000	-5.090000
	21.500230	1368.263149	9.796000	-5.320000
	21.604236	1368.202265	9.812000	-5.410000
	21.700241	1368.202265	9.812000	-5.410000
	21.800247	1368.165257	9.852000	-5.210000
	21.900253	1368.159287	9.846000	-4.950000
	22.000258	1368.155705	9.806000	-4.930000
	22.100264	1368.115117	9.808000	-5.240000
	22.200270	1368.080497	9.864000	-5.190000
	22.300275	1368.069753	9.868000	-4.990000
	22.400281	1368.061396	9.824000	-4.970000
	22.501287	1368.036327	9.792000	-5.110000
	22.603293	1368.000517	9.832000	-5.200000
	22.701298	1367.994548	9.880000	-4.950000
	22.800304	1367.994548	9.880000	-4.950000
	22.900310	1367.990966	9.822000	-4.930000
	23.000316	1367.970673	9.794000	-5.070000
	23.100321	1367.947993	9.824000	-5.090000
	23.200327	1367.949187	9.878000	-4.890000
	23.300333	1367.955156	9.828000	-4.850000
	23.400338	1367.945606	9.804000	-4.980000
	23.503344	1367.912185	9.810000	-5.180000
	23.600350	1367.907410	9.850000	-4.940000
	23.700356	1367.914572	9.834000	-4.840000
	23.800361	1367.914572	9.834000	-4.840000
	23.900367	1367.908604	9.790000	-4.950000
	24.000373	1367.866829	9.826000	-5.250000
	24.100379	1367.872798	9.854000	-4.850000
	24.200384	1367.884735	9.818000	-4.800000
	24.300390	1367.881154	9.812000	-4.930000
	24.400395	1367.857282	9.828000	-5.100000
	24.510402	1367.864445	9.852000	-4.840000
	24.600407	1367.879963	9.818000	-4.770000
	24.700413	1367.854898	9.816000	-5.110000
	24.800418	1367.835800	9.838000	-5.060000
	24.950427	1367.835800	9.838000	-5.060000
	25.050433	1367.853706	9.860000	-4.750000
	25.150438	1367.842964	9.800000	-4.990000
	25.250444	1367.805965	9.828000	-5.210000
	25.350450	1367.803577	9.864000	-4.920000
	25.450456	1367.816708	9.828000	-4.790000
	25.550461	1367.798805	9.808000	-5.050000
	25.650467	1367.770160	9.850000	-5.140000
	25.750473	1367.772547	9.856000	-4.880000
	25.850479	1367.772547	9.856000	-4.880000
	25.950484	1367.794034	9.806000	-4.720000
	26.050490	1367.763003	9.812000	-5.160000
	26.150496	1367.740327	9.856000	-5.090000
	26.250501	1367.755844	9.848000	-4.770000
	26.351507	1367.737941	9.812000	-5.050000
	26.450513	1367.723619	9.858000	-5.020000
	26.550519	1367.733168	9.846000	-4.820000
	26.650524	1367.733168	9.802000	-4.900000
	26.750530	1367.692592	9.814000	-5.240000
	26.857536	1367.704528	9.854000	-4.800000
	26.950541	1367.715270	9.824000	-4.810000
	27.050547	1367.715270	9.824000	-4.810000
	27.149553	1367.705722	9.818000	-4.980000
	27.249558	1367.693787	9.834000	-5.000000
	27.399567	1367.698561	9.838000	-4.860000
	27.499573	1367.702142	9.816000	-4.870000
	27.599578	1367.674693	9.822000	-5.130000
	27.699584	1367.684242	9.858000	-4.820000
	27.800590	1367.692597	9.810000	-4.830000
	27.899596	1367.673501	9.840000	-5.060000
	27.999601	1367.666340	9.856000	-4.960000
	28.099607	1367.683051	9.818000	-4.760000
	28.199613	1367.671116	9.810000	-5.000000
	28.300619	1367.671116	9.810000	-5.000000
	28.399624	1367.673503	9.850000	-4.880000
	28.499630	1367.693794	9.806000	-4.730000
	28.599636	1367.672312	9.804000	-5.080000
	28.699642	1367.667538	9.858000	-4.940000
	28.799647	1367.686636	9.836000	-4.740000
	28.899653	1367.678281	9.800000	-4.970000
	28.999659	1367.660380	9.838000	-5.050000
	29.099664	1367.685446	9.840000	-4.690000
	29.201670	1367.690220	9.812000	-4.860000
	29.299676	1367.683059	9.830000	-4.960000
	29.399682	1367.683059	9.830000	-4.960000
	29.499687	1367.691414	9.846000	-4.830000
	29.599693	1367.696188	9.804000	-4.860000
	29.699699	1367.673513	9.816000	-5.090000
	29.799705	1367.681868	9.864000	-4.830000
	29.899710	1367.698578	9.814000	-4.760000
	29.999716	1367.647264	9.802000	-5.330000
	30.099721	1367.671137	9.790000	-4.700000
	30.199727	1367.668750	9.716000	-4.920000
	30.299733	1367.636528	9.806000	-5.170000
	30.399739	1367.636528	9.806000	-5.170000
	30.499744	1367.618627	9.854000	-5.050000
	30.599750	1367.638918	9.816000	-4.730000
	30.699756	1367.609083	9.792000	-5.150000
	30.799762	1367.592376	9.842000	-5.040000
	30.899767	1367.605504	9.788000	-4.790000
	30.999773	1367.603118	9.764000	-4.920000
	31.101779	1367.562545	9.790000	-5.240000
	31.199784	1367.631784	9.784000	-4.320000
	31.299790	1367.636558	9.732000	-4.860000
	31.399796	1367.636558	9.732000	-4.860000
	31.499802	1367.656849	9.780000	-4.730000
	31.599807	1367.728481	9.768000	-4.300000
	31.699813	1367.778620	9.686000	-4.480000
	31.799819	1367.821598	9.744000	-4.540000
	31.899825	1367.915935	9.738000	-4.110000
	31.999830	1368.125062	9.516000	-3.150000
	32.108837	1368.147749	9.758000	-4.710000
	32.199841	1368.166853	9.848000	-4.740000
	32.299848	1368.193123	9.766000	-4.680000
	32.399853	1368.193123	9.766000	-4.680000
	32.499859	1368.213422	9.696000	-4.730000
	32.649868	1368.246858	9.744000	-4.620000
	32.749873	1368.264769	9.740000	-4.750000
	32.849879	1368.287458	9.718000	-4.710000
	32.949884	1368.236122	9.682000	-5.330000
	33.049891	1368.213438	9.752000	-5.090000
	33.149896	1368.267179	9.736000	-4.450000
	33.249902	1368.329285	9.684000	-4.380000
	33.349907	1368.267205	9.608000	-5.420000
	33.450913	1368.310197	9.740000	-4.540000
	33.552919	1368.310197	9.740000	-4.540000
	33.650925	1368.375889	9.740000	-4.350000
	33.749930	1368.399774	9.706000	-4.700000
	33.849936	1368.485785	9.782000	-4.180000
	33.949942	1368.438023	9.852000	-5.300000
	34.049947	1368.552724	9.618000	-3.940000
	34.152954	1368.549141	9.704000	-4.930000
	34.249959	1368.507347	9.602000	-5.250000
	34.349965	1368.450034	9.752000	-5.380000
	34.452971	1368.450034	9.752000	-5.380000
	34.549976	1368.444063	9.772000	-4.950000
	34.649982	1368.460783	9.764000	-4.760000
	34.749988	1368.426155	9.708000	-5.190000
	34.849993	1368.378395	9.766000	-5.300000
	34.949999	1368.379589	9.806000	-4.890000
	35.050004	1368.381978	9.768000	-4.880000
	35.150011	1368.376007	9.722000	-4.950000
	35.250016	1368.347351	9.756000	-5.140000
	35.350022	1368.342574	9.812000	-4.940000
	35.460028	1368.381986	9.762000	-4.570000
	35.550033	1368.395122	9.704000	-4.790000
	35.650039	1368.395122	9.704000	-4.790000
	35.750045	1368.398705	9.724000	-4.870000
	35.850050	1368.423784	9.778000	-4.690000
	35.950056	1368.481118	9.758000	-4.420000
	36.050062	1368.522923	9.698000	-4.550000
	36.150068	1368.593405	9.690000	-4.310000
	36.250073	1368.586239	9.768000	-4.960000
	36.352079	1368.600572	9.764000	-4.780000
	36.450085	1368.684204	9.744000	-4.200000
	36.550090	1368.684204	9.744000	-4.200000
	36.650096	1368.815668	9.500000	-3.800000
	36.750102	1368.777448	9.658000	-5.220000
	36.850108	1368.675947	9.904000	-5.750000
	36.950113	1368.655644	9.520000	-5.070000
	37.053119	1368.529084	9.590000	-5.960000
	37.150125	1368.509977	9.662000	-5.060000
	37.250131	1368.487288	9.722000	-5.090000
	37.354136	1368.488482	9.750000	-4.890000
	37.450142	1368.505203	9.776000	-4.760000
	37.550148	1368.542230	9.752000	-4.590000
	37.650153	1368.570896	9.708000	-4.660000
	37.750159	1368.556565	9.728000	-5.020000
	37.850165	1368.556565	9.728000	-5.020000
	37.950171	1368.543428	9.748000	-5.010000
	38.050176	1368.555371	9.786000	-4.800000
	38.150182	1368.580454	9.780000	-4.690000
	38.254188	1368.604342	9.744000	-4.700000
	38.350194	1368.606731	9.696000	-4.880000
	38.450199	1368.586429	9.712000	-5.070000
	38.550205	1368.556574	9.718000	-5.150000
	38.650210	1368.544632	9.782000	-5.000000
	38.750216	1368.556575	9.780000	-4.800000
	38.850222	1368.588825	9.744000	-4.630000
	38.950228	1368.601963	9.708000	-4.790000
	39.050233	1368.580467	9.716000	-5.080000
	39.150239	1368.532702	9.744000	-5.300000
	39.252245	1368.524342	9.760000	-4.970000
	39.350251	1368.536285	9.778000	-4.800000
	39.450256	1368.569729	9.748000	-4.620000
	39.550262	1368.569729	9.748000	-4.620000
	39.650268	1368.567341	9.718000	-4.920000
	39.750274	1368.551816	9.724000	-5.030000
	39.850279	1368.517185	9.778000	-5.190000
	39.950285	1368.530323	9.778000	-4.790000
	40.050291	1368.553016	9.752000	-4.710000
	40.150296	1368.542268	9.692000	-4.990000
	40.250302	1368.523161	9.734000	-5.060000
	40.350308	1368.494501	9.758000	-5.140000
	40.450314	1368.505250	9.762000	-4.810000
	40.550319	1368.537498	9.774000	-4.630000
	40.650325	1368.545858	9.730000	-4.830000
	40.800333	1368.535110	9.738000	-4.990000
	40.900339	1368.512421	9.722000	-5.090000
	41.000345	1368.350069	9.460000	-6.260000
	41.100351	1368.402621	9.780000	-4.460000
	41.200356	1368.456369	9.758000	-4.450000
	41.300362	1368.456369	9.758000	-4.450000
	41.400368	1368.467117	9.716000	-4.810000
	41.500373	1368.448011	9.748000	-5.060000
	41.602379	1368.366826	9.860000	-5.580000
	41.700385	1368.302357	10.038000	-5.440000
	41.800391	1368.111389	9.410000	-6.500000
	41.900396	1368.198577	9.712000	-4.170000
	42.000402	1368.241567	9.722000	-4.540000
	42.100408	1368.300088	9.718000	-4.410000
	42.200414	1368.404019	9.704000	-4.030000
	42.300419	1368.552198	9.750000	-3.660000
	42.400425	1368.570114	9.696000	-4.750000
	42.500431	1368.635818	9.708000	-4.350000
	42.600437	1368.645373	9.676000	-4.820000
	42.701442	1368.669263	9.726000	-4.700000
	42.800448	1368.718242	9.730000	-4.490000
	42.900454	1368.718242	9.730000	-4.490000
	43.000459	1368.837750	9.668000	-3.900000
	43.100465	1369.045821	9.582000	-3.160000
	43.200471	1369.105572	9.790000	-4.400000
	43.300477	1369.103182	9.640000	-4.920000
	43.400482	1369.101987	9.660000	-4.910000
	43.501488	1369.103182	9.666000	-4.890000
	43.600494	1369.098403	9.702000	-4.940000
	43.700500	1369.093624	9.706000	-4.940000
	43.800505	1369.094819	9.832000	-4.890000
	43.900511	1369.107962	9.684000	-4.790000
	44.000516	1369.111546	9.654000	-4.870000
	44.100523	1369.088847	9.648000	-5.090000
	44.200528	1369.060176	9.652000	-5.140000
	44.300534	1369.041062	9.672000	-5.060000
	44.400539	1369.030310	9.670000	-4.990000
	44.503545	1369.030310	9.670000	-4.990000
	44.599551	1369.031504	9.700000	-4.890000
	44.699557	1368.908492	9.688000	-5.930000
	44.799562	1368.968236	9.710000	-4.400000
	44.899568	1369.025593	9.680000	-4.420000
	44.999574	1369.082952	9.488000	-4.420000
	45.099579	1369.069810	9.650000	-5.010000
	45.199585	1369.042334	9.668000	-5.130000
	45.299591	1369.039944	9.718000	-4.920000
	45.401597	1369.057866	9.706000	-4.750000
	45.499602	1369.087738	9.688000	-4.650000
	45.599608	1369.102076	9.688000	-4.780000
	45.699614	1369.102076	9.688000	-4.780000
	45.799620	1369.082961	9.654000	-5.060000
	45.899625	1369.050706	9.668000	-5.170000
	45.999631	1369.036370	9.666000	-5.020000
	46.099637	1369.055487	9.708000	-4.740000
	46.199642	1369.120019	9.702000	-4.360000
	46.299648	1369.131968	9.486000	-4.800000
	46.408654	1369.159451	9.598000	-4.670000
	46.499660	1369.169010	9.634000	-4.820000
	46.599665	1369.172594	9.588000	-4.870000
	46.699671	1369.172594	9.588000	-4.870000
	46.799677	1369.081812	9.644000	-5.660000
	46.949685	1369.093760	9.696000	-4.800000
	47.049691	1369.131998	9.698000	-4.580000
	47.149697	1369.163066	9.662000	-4.640000
	47.249702	1369.197721	9.634000	-4.610000
	47.349708	1369.190552	9.632000	-4.960000
	47.449714	1369.275416	9.646000	-4.190000
	47.549720	1369.267052	9.646000	-4.970000
	47.649725	1369.288562	9.668000	-4.720000
	47.749731	1369.219272	9.888000	-5.480000
	47.799734	1369.219272	9.888000	-5.480000
	47.949742	1369.285007	9.656000	-4.350000
	48.049748	1369.295762	9.666000	-4.810000
	48.149754	1369.305322	9.618000	-4.820000
	48.249760	1369.276646	9.610000	-5.140000
	48.349765	1369.232441	9.626000	-5.270000
	48.449771	1369.203766	9.676000	-5.140000
	48.549777	1369.178676	9.694000	-5.110000
	48.649783	1369.242019	9.668000	-4.370000
	48.752789	1369.304169	9.644000	-4.380000
	48.849794	1369.304169	9.644000	-4.380000
	48.949800	1369.359149	9.596000	-4.440000
	49.049806	1369.395004	9.580000	-4.600000
	49.149811	1369.391419	9.550000	-4.930000
	49.249817	1369.426079	9.506000	-4.610000
	49.349823	1369.369922	9.666000	-5.370000
	49.449828	1369.346024	9.676000	-5.100000
	49.549834	1369.330490	9.658000	-5.030000
	49.649840	1369.328100	9.678000	-4.920000
	49.749846	1369.334075	9.690000	-4.850000
	49.849851	1369.389056	9.620000	-4.440000
	49.949857	1369.389056	9.620000	-4.440000
	50.049863	1369.448821	9.592000	-4.400000
	50.149868	1369.514568	9.598000	-4.350000
	50.299877	1369.557600	9.568000	-4.540000
	50.399883	1369.531308	9.596000	-5.120000
	50.499888	1369.491874	9.596000	-5.230000
	50.599894	1369.448856	9.612000	-5.260000
	50.749903	1369.405840	9.644000	-5.260000
	50.849908	1369.374772	9.674000	-5.160000
	50.949914	1369.378357	9.670000	-4.870000
	51.049920	1369.409431	9.652000	-4.640000
	51.149926	1369.448874	9.636000	-4.570000
	51.249931	1369.538538	9.770000	-4.150000
	51.349937	1369.594723	9.550000	-4.430000
	51.449943	1369.616238	9.540000	-4.720000
	51.549949	1369.631777	9.554000	-4.770000
	51.599951	1369.611460	9.534000	-5.070000
	51.749960	1369.611460	9.534000	-5.070000
	51.849966	1369.585167	9.656000	-5.120000
	51.949971	1369.558876	9.576000	-5.120000
	52.049977	1369.533779	9.600000	-5.110000
	52.149983	1369.511073	9.618000	-5.090000
	52.249989	1369.503903	9.630000	-4.960000
	52.349994	1369.512269	9.638000	-4.830000
	52.450000	1386.537856	0.206000	61.960000
	52.551006	1397.576697	0.176000	51.950000
	52.652011	1700.102226	0.136000	82.220000
	52.750017	1700.102226	0.136000	82.220000
	52.850023	1733.038725	0.154000	69.280000
	52.950028	1773.877403	0.310000	71.740000
	53.050035	1792.363957	0.292000	58.310000
	53.152040	1801.367333	0.308000	39.520000
	53.250046	1818.542939	0.228000	56.310000
	53.350051	1761.623348	0.938000	-87.200000
	53.450057	1789.073683	0.218000	66.010000
	53.558064	1815.869562	0.266000	65.350000
	53.650069	1841.526571	0.198000	64.340000
	53.750074	1872.230209	0.182000	67.090000
	53.850080	1872.230209	0.182000	67.090000
	53.950086	1904.609841	0.208000	67.650000
	54.100094	2155.263861	0.196000	81.410000
	54.200100	2197.171509	0.224000	69.330000
	54.300106	2233.663739	0.226000	67.030000
	54.401112	2281.875145	0.246000	70.690000
	54.500117	2325.793306	0.286000	69.190000
	54.601123	2372.841379	0.274000	69.860000
	54.700129	2397.536227	0.318000	58.280000
	54.800134	2418.271850	0.358000	54.000000
	54.900140	2436.293055	0.352000	50.260000
	54.950143	2436.293055	0.352000	50.260000
	55.100152	2462.141797	0.314000	58.700000
	55.200157	2482.331502	0.382000	52.690000
	55.300163	2507.227532	0.330000	57.460000
	55.400169	2526.790734	0.364000	51.440000
	55.500175	2551.242252	0.378000	56.650000
	55.600180	2559.523264	0.626000	27.670000
	55.700186	2579.804127	0.368000	51.830000
	55.800191	2595.128057	0.448000	44.180000
	55.907197	2615.007706	0.406000	50.970000
	56.000203	2625.744278	0.624000	33.920000
	56.100209	2645.108992	0.494000	49.990000
	56.200214	2645.108992	0.494000	49.990000
	56.302220	2655.961232	0.604000	33.900000
	56.450229	2664.288555	0.448000	26.790000
	56.550234	2676.250897	0.528000	36.390000
	56.650240	2712.089731	0.362000	63.370000
	56.750246	2744.100017	0.408000	60.930000
	56.850252	2780.590125	0.382000	63.240000
	56.950257	2811.360805	0.398000	59.600000
	57.050263	2856.428628	0.386000	66.470000
	57.150269	2900.668873	0.448000	65.910000
	57.250275	2938.788149	0.486000	63.020000
	57.357281	2936.826295	0.804000	-12.530000
	57.450286	2944.645038	0.838000	22.820000
	57.552292	2944.645038	0.838000	22.820000
	57.650297	2908.173467	0.340000	-74.150000
	57.750303	2814.645238	0.290000	-87.440000
	57.850309	2710.421950	0.366000	-88.590000
	57.950315	2565.612949	0.370000	-90.930000
	58.050320	2326.603023	0.376000	-93.170000
	58.150326	2224.980704	0.460000	-89.750000
	58.250332	2105.655711	0.544000	-90.950000
	58.361338	2036.511584	0.600000	-87.620000
	58.450343	2036.511584	0.600000	-87.620000
	58.550349	1548.059800	0.666000	-94.820000
	58.650354	1520.026294	2.178000	-80.790000
	58.750360	1495.329658	2.536000	-79.100000
	58.850366	1474.436106	3.014000	-76.480000
	58.950372	1456.965324	3.494000	-73.240000
	59.050377	1442.292620	4.064000	-69.650000
	59.150383	1430.178044	4.664000	-65.200000
	59.256389	1419.909156	5.354000	-61.020000
	59.351395	1411.356375	6.000000	-56.060000
	59.450400	1404.249719	6.660000	-50.830000
	59.550406	1404.249719	6.660000	-50.830000
	59.650412	1398.349581	7.266000	-45.540000
	59.800420	1393.435389	7.800000	-40.480000
	59.900426	1389.360590	8.266000	-35.590000
	60.000432	1385.915963	8.646000	-31.560000
	60.100438	1383.098593	8.942000	-27.230000
	60.200443	1380.743009	9.034000	-23.860000
	60.300449	1378.845451	9.266000	-20.370000
	60.400455	1377.260415	9.366000	-17.920000
	60.500461	1375.932029	9.408000	-15.870000
	60.600466	1374.765970	9.466000	-14.560000
	60.650469	1374.765970	9.466000	-14.560000
	60.800478	1373.843361	9.570000	-12.570000
	60.900483	1373.020646	9.570000	-11.750000
	61.000489	1372.390074	9.562000	-10.160000
	61.100495	1371.865490	9.632000	-9.280000
	61.200500	1371.405855	9.664000	-8.740000
	61.300506	1371.025417	9.648000	-8.080000
	61.411512	1370.696536	9.644000	-7.650000
	61.500517	1370.413178	9.632000	-7.270000
	61.600523	1370.195622	9.598000	-6.720000
	61.700529	1370.006780	9.620000	-6.480000
	61.800535	1369.847835	9.640000	-6.230000
	61.900540	1369.847835	9.640000	-6.230000
	62.000546	1369.718775	9.646000	-5.980000
	62.099552	1369.613621	9.668000	-5.780000
	62.249560	1369.531172	9.654000	-5.590000
	62.349566	1369.484568	9.682000	-5.290000
	62.450572	1369.461863	9.668000	-5.090000
	62.549578	1369.442743	9.658000	-5.060000
	62.649583	1369.416454	9.608000	-5.120000
	62.749589	1369.386581	9.628000	-5.150000
	62.849595	1369.367462	9.624000	-5.060000
	62.950601	1369.318475	9.618000	-5.310000
	63.056607	1369.285020	9.626000	-5.180000
	63.149612	1369.285020	9.626000	-5.180000
	63.249618	1369.252761	9.656000	-5.170000
	63.349623	1369.244397	9.684000	-4.970000
	63.449629	1369.257541	9.688000	-4.790000
	63.549635	1369.264711	9.632000	-4.840000
	63.649641	1369.264711	9.638000	-4.900000
	63.752646	1369.255152	9.612000	-4.980000
	63.849652	1369.232451	9.620000	-5.090000
	63.949658	1369.201387	9.650000	-5.160000
	64.050663	1369.203777	9.648000	-4.880000
	64.153669	1369.203777	9.648000	-4.880000
	64.249675	1369.204972	9.672000	-4.890000
	64.349680	1369.218116	9.658000	-4.790000
	64.449687	1369.247991	9.638000	-4.650000
	64.549692	1369.244406	9.586000	-4.930000
	64.649698	1369.231263	9.618000	-5.010000
	64.749703	1369.203783	9.658000	-5.130000
	64.849709	1369.196614	9.652000	-4.960000
	64.951715	1369.203784	9.682000	-4.840000
	65.049721	1369.203784	9.682000	-4.840000
	65.149726	1369.225293	9.674000	-4.720000
	65.249732	1369.245607	9.632000	-4.730000
	65.349738	1369.250387	9.638000	-4.860000
	65.449743	1369.247997	9.626000	-4.920000
	65.549749	1369.224101	9.622000	-5.100000
	65.649755	1369.202595	9.658000	-5.080000
	65.749761	1369.190647	9.660000	-5.000000
	65.849766	1369.188258	9.688000	-4.920000
	65.958773	1369.225303	9.678000	-4.590000
	66.049778	1369.225303	9.678000	-4.590000
	66.149784	1369.239642	9.650000	-4.780000
	66.249789	1369.237253	9.616000	-4.920000
	66.349795	1369.239642	9.630000	-4.880000
	66.452801	1369.213357	9.652000	-5.120000
	66.549807	1369.206188	9.668000	-4.960000
	66.649812	1369.187072	9.674000	-5.060000
	66.749818	1369.200216	9.680000	-4.790000
	66.856824	1369.221725	9.672000	-4.720000
	66.949829	1369.245624	9.652000	-4.700000
	67.049835	1369.252794	9.644000	-4.840000
	67.149841	1369.243235	9.632000	-4.980000
	67.249846	1369.243235	9.632000	-4.980000
	67.349852	1369.228897	9.616000	-5.020000
	67.499861	1369.210975	9.624000	-5.050000
	67.599866	1369.190664	9.658000	-5.070000
	67.699872	1369.194248	9.690000	-4.870000
	67.799878	1369.214562	9.674000	-4.730000
	67.899884	1369.234877	9.624000	-4.730000
	67.999889	1369.250411	9.644000	-4.770000
	68.099895	1369.246826	9.614000	-4.930000
	68.199901	1369.234878	9.622000	-5.000000
	68.249904	1369.234878	9.622000	-5.000000
	68.399912	1369.213372	9.634000	-5.080000
	68.499918	1369.205008	9.654000	-4.970000
	68.599924	1369.203813	9.680000	-4.910000
	68.699929	1369.216957	9.658000	-4.790000
	68.799935	1369.237271	9.658000	-4.730000
	68.899941	1369.263562	9.652000	-4.680000
	68.999947	1369.273121	9.586000	-4.820000
	69.099952	1369.250420	9.610000	-5.090000
	69.199958	1369.225329	9.632000	-5.110000
	69.249961	1369.225329	9.632000	-5.110000
	69.399970	1369.220550	9.658000	-4.940000
	69.499975	1369.221744	9.660000	-4.890000
	69.599981	1369.228914	9.652000	-4.840000
	69.699986	1369.250423	9.640000	-4.720000
	69.799992	1369.269543	9.634000	-4.740000
	69.899998	1369.268348	9.616000	-4.910000
	70.000004	1369.262374	9.610000	-4.950000
	70.100009	1369.234894	9.632000	-5.130000
	70.203015	1369.216971	9.662000	-5.050000
	70.300021	1369.216971	9.662000	-5.050000
	70.400027	1369.228921	9.660000	-4.800000
	70.500032	1369.240870	9.682000	-4.800000
	70.600038	1369.269550	9.656000	-4.660000
	70.700044	1369.300622	9.646000	-4.640000
	70.800049	1369.312572	9.620000	-4.800000
	70.900055	1369.301818	9.618000	-4.990000
	71.000061	1369.281505	9.626000	-5.070000
	71.101067	1369.240883	9.646000	-5.240000
	71.208073	1369.218182	9.660000	-5.090000
	71.300078	1369.218182	9.660000	-5.090000
	71.400084	1369.233716	9.676000	-4.770000
	71.500090	1369.250446	9.670000	-4.760000
	71.600095	1369.276736	9.662000	-4.680000
	71.700101	1369.294661	9.640000	-4.750000
	71.800107	1369.293466	9.606000	-4.910000
	71.902112	1369.270764	9.628000	-5.090000
	72.000118	1369.245673	9.640000	-5.110000
	72.103124	1369.228946	9.658000	-5.040000
	72.200130	1369.231336	9.678000	-4.880000
	72.300135	1369.231336	9.678000	-4.880000
	72.400141	1369.248065	9.670000	-4.760000
	72.500147	1369.261209	9.654000	-4.790000
	72.600152	1369.267184	9.636000	-4.850000
	72.700158	1369.273159	9.610000	-4.850000
	72.800164	1369.256431	9.610000	-5.040000
	72.900169	1369.238509	9.632000	-5.050000
	73.000175	1369.226560	9.658000	-5.000000
	73.110182	1369.228950	9.664000	-4.880000
	73.200187	1369.260021	9.666000	-4.640000
	73.300192	1369.275555	9.656000	-4.770000
	73.400198	1369.275555	9.656000	-4.770000
	73.500204	1369.287505	9.642000	-4.800000
	73.650212	1369.285115	9.638000	-4.920000
	73.750218	1369.271971	9.634000	-5.010000
	73.850224	1369.240907	9.652000	-5.160000
	73.952230	1369.256441	9.676000	-4.770000
	74.050235	1369.274366	9.662000	-4.750000
	74.150241	1369.291096	9.644000	-4.760000
	74.250247	1369.288706	9.642000	-4.920000
	74.350253	1369.301851	9.626000	-4.790000
	74.450258	1369.276760	9.626000	-5.110000
	74.553264	1369.276760	9.626000	-5.110000
	74.651270	1369.255253	9.656000	-5.080000
	74.752275	1369.244499	9.682000	-4.990000
	74.850281	1369.256448	9.680000	-4.800000
	74.950287	1369.281544	9.658000	-4.690000
	75.100296	1369.304249	9.650000	-4.710000
	75.200301	1369.304249	9.612000	-4.900000
	75.300307	1369.285131	9.630000	-5.060000
	75.400312	1369.270793	9.648000	-5.020000
	75.500319	1369.260039	9.652000	-4.990000
	75.650327	1369.271989	9.678000	-4.800000
	75.750332	1369.297084	9.658000	-4.690000
	75.850338	1369.318595	9.638000	-4.720000
	76.000347	1369.324570	9.616000	-4.850000
	76.103353	1369.334130	9.616000	-4.820000
	76.200358	1369.318596	9.622000	-5.030000
	76.300364	1369.291115	9.660000	-5.130000
	76.400370	1369.269608	9.674000	-5.080000
	76.500375	1369.268413	9.674000	-4.910000
	76.600381	1369.280362	9.674000	-4.800000
	76.700387	1369.306653	9.660000	-4.680000
	76.800393	1369.305458	9.632000	-4.910000
	76.850396	1369.318604	9.626000	-4.790000
	77.035406	1369.318604	9.694000	-4.900000
	77.100410	1369.318604	9.694000	-4.900000
	77.202415	1369.332944	9.672000	-4.780000
	77.302422	1369.365212	9.674000	-4.630000
	77.400427	1369.355652	9.622000	-4.980000
	77.500432	1369.317418	9.630000	-5.220000
	77.600439	1369.282768	9.652000	-5.190000
	77.700444	1369.260066	9.672000	-5.090000
	77.810451	1369.266041	9.692000	-4.850000
	77.900455	1369.298308	9.678000	-4.630000
	78.000461	1369.315038	9.614000	-4.760000
	78.100467	1369.329378	9.612000	-4.780000
	78.200473	1369.329378	9.612000	-4.780000
	78.300478	1369.322208	9.630000	-4.960000
	78.400484	1369.297116	9.654000	-5.110000
	78.550493	1369.303091	9.654000	-4.850000
	78.650498	1369.293532	9.680000	-4.980000
	78.750504	1369.307872	9.648000	-4.780000
	78.850510	1369.288754	9.624000	-5.060000
	78.950516	1369.276805	9.618000	-5.000000
	79.050521	1369.256493	9.632000	-5.070000
	79.152527	1369.250519	9.672000	-4.950000
	79.300536	1369.263663	9.680000	-4.790000
	79.400541	1369.292344	9.660000	-4.660000
	79.500547	1369.298319	9.642000	-4.850000
	79.600553	1369.300709	9.620000	-4.880000
	79.699558	1369.294734	9.634000	-4.950000
	79.799564	1369.258891	9.640000	-5.200000
	79.899570	1369.258891	9.640000	-5.200000
	79.999576	1369.257696	9.662000	-4.910000
	80.099581	1369.260086	9.688000	-4.880000
	80.199587	1369.276815	9.660000	-4.760000
	80.299593	1369.294740	9.640000	-4.750000
	80.399599	1369.303105	9.632000	-4.830000
	80.500604	1369.276819	9.626000	-5.120000
	80.599610	1369.255312	9.622000	-5.080000
	80.702616	1369.235000	9.650000	-5.070000
	80.799622	1369.229026	9.678000	-4.950000
	80.899627	1369.242170	9.682000	-4.790000
	80.999633	1369.261290	9.664000	-4.740000
	81.099638	1369.261290	9.664000	-4.740000
	81.203644	1369.276824	9.648000	-4.770000
	81.299650	1369.278019	9.618000	-4.890000
	81.401656	1369.256512	9.638000	-5.080000
	81.499661	1369.248148	9.636000	-4.970000
	81.599667	1369.240979	9.666000	-4.960000
	81.699673	1369.243369	9.686000	-4.880000
	81.801679	1369.262488	9.684000	-4.740000
	81.899684	1369.264878	9.648000	-4.880000
	81.999690	1369.281608	9.636000	-4.760000
	82.099696	1369.269659	9.616000	-5.000000
	82.199701	1369.248152	9.642000	-5.080000
	82.299707	1369.226646	9.658000	-5.080000
	82.399713	1369.220672	9.668000	-4.950000
	82.499719	1369.223062	9.668000	-4.880000
	82.599724	1369.249351	9.674000	-4.680000
	82.699730	1369.249351	9.674000	-4.680000
	82.799736	1369.266081	9.640000	-4.760000
	82.899742	1369.286396	9.646000	-4.730000
	82.999747	1369.280421	9.632000	-4.950000
	83.099753	1369.269668	9.650000	-4.990000
	83.199759	1369.267278	9.660000	-4.920000
	83.299764	1369.251745	9.672000	-5.030000
	83.399770	1369.257719	9.676000	-4.850000
	83.499776	1369.264889	9.674000	-4.840000
	83.599782	1369.279229	9.660000	-4.780000
	83.699787	1369.293569	9.656000	-4.780000
	83.799793	1369.282815	9.612000	-4.990000
	83.899799	1369.280425	9.630000	-4.920000
	83.999804	1369.257723	9.636000	-5.090000
	84.099810	1369.239801	9.646000	-5.050000
	84.199816	1369.230242	9.684000	-4.980000
	84.299821	1369.236216	9.692000	-4.850000
	84.399827	1369.236216	9.692000	-4.850000
	84.500833	1369.249361	9.686000	-4.790000
	84.600839	1369.262505	9.652000	-4.790000
	84.699844	1369.261310	9.622000	-4.910000
	84.799850	1369.256531	9.620000	-4.940000
	84.899856	1369.221883	9.650000	-5.190000
	84.999862	1369.208740	9.680000	-5.010000
	85.100867	1369.220689	9.676000	-4.800000
	85.199873	1369.244588	9.684000	-4.700000
	85.304879	1369.266098	9.644000	-4.720000
	85.399885	1369.261319	9.636000	-4.940000
	85.499890	1369.244591	9.634000	-5.040000
	85.599896	1369.224279	9.652000	-5.070000
	85.699902	1369.209942	9.668000	-5.020000
	85.799907	1369.219501	9.680000	-4.820000
	85.899913	1369.235035	9.672000	-4.770000
	85.999919	1369.235035	9.672000	-4.770000
	86.099925	1369.246984	9.664000	-4.800000
	86.199930	1369.250569	9.646000	-4.870000
	86.299936	1369.243400	9.634000	-4.960000
	86.399942	1369.236231	9.646000	-4.960000
	86.499948	1369.219503	9.656000	-5.040000
	86.599953	1369.225478	9.676000	-4.850000
	86.699959	1369.233842	9.682000	-4.830000
	86.799964	1369.248182	9.656000	-4.780000
	86.899971	1369.258936	9.660000	-4.810000
	86.999976	1369.260131	9.640000	-4.890000
	87.099982	1369.242208	9.664000	-5.050000
	87.199987	1369.227871	9.684000	-5.020000
	87.299993	1369.241015	9.672000	-4.790000
	87.399999	1369.274476	9.666000	-4.620000
	87.500005	1369.288816	9.640000	-4.780000
	87.600010	1369.295986	9.630000	-4.840000
	87.700016	1369.295986	9.630000	-4.840000
	87.800022	1369.276868	9.636000	-5.060000
	87.900028	1369.254166	9.672000	-5.090000
	88.000033	1369.245802	9.688000	-4.970000
	88.100039	1369.261337	9.678000	-4.770000
	88.200045	1369.284042	9.642000	-4.710000
	88.300050	1369.278067	9.634000	-4.950000
	88.400056	1369.261339	9.620000	-5.040000
	88.500062	1369.242222	9.686000	-5.060000
	88.600068	1369.243417	9.668000	-4.890000
	88.700073	1369.263732	9.654000	-4.730000
	88.808080	1369.286437	9.638000	-4.710000
	88.900085	1369.288827	9.624000	-4.880000
	89.000091	1369.274489	9.662000	-5.020000
	89.100096	1369.274489	9.662000	-5.020000
	89.200102	1369.268514	9.670000	-4.950000
	89.300107	1369.282854	9.666000	-4.780000
	89.400114	1369.311535	9.654000	-4.660000
	89.500119	1369.317510	9.632000	-4.850000
	89.600125	1369.291223	9.626000	-5.120000
	89.700130	1369.281664	9.654000	-4.980000
	89.800136	1369.280469	9.678000	-4.910000
	89.900142	1369.294809	9.682000	-4.780000
	90.000148	1369.309149	9.662000	-4.780000
	90.100153	1369.307954	9.628000	-4.910000
	90.200159	1369.286447	9.614000	-5.080000
	90.300165	1369.258966	9.634000	-5.130000
	90.400171	1369.248212	9.668000	-4.990000
	90.500176	1369.242238	9.694000	-4.950000
	90.600182	1369.242238	9.694000	-4.950000
	90.700188	1369.266138	9.662000	-4.700000
	90.800193	1369.278088	9.658000	-4.800000
	90.900199	1369.272113	9.632000	-4.950000
	91.000205	1369.250606	9.660000	-5.080000
	91.100211	1369.241047	9.688000	-4.980000
	91.200216	1369.251802	9.676000	-4.810000
	91.300222	1369.267336	9.660000	-4.770000
	91.400228	1369.281676	9.642000	-4.780000
	91.500234	1369.263753	9.636000	-5.050000
	91.600239	1369.247026	9.668000	-5.040000
	91.700245	1369.237467	9.678000	-4.980000
	91.800251	1369.249416	9.690000	-4.800000
	91.900256	1369.262561	9.666000	-4.790000
	92.000262	1369.262561	9.666000	-4.790000
	92.100268	1369.249417	9.622000	-5.010000
	92.201273	1369.238664	9.668000	-4.990000
	92.300279	1369.239859	9.672000	-4.890000
	92.400285	1369.247028	9.664000	-4.840000
	92.500291	1369.266148	9.674000	-4.740000
	92.600296	1369.286463	9.640000	-4.730000
	92.700302	1369.273319	9.646000	-5.010000
	92.800308	1369.247034	9.666000	-5.120000
	92.900313	1369.225527	9.676000	-5.080000
	93.000319	1369.232697	9.686000	-4.840000
	93.100325	1369.251816	9.674000	-4.740000
	93.200331	1369.258986	9.644000	-4.840000
	93.300336	1369.253011	9.644000	-4.950000
	93.400342	1369.245842	9.656000	-4.960000
	93.500348	1369.236283	9.678000	-4.980000
	93.600354	1369.236283	9.678000	-4.980000
	93.701359	1369.242258	9.678000	-4.850000
	93.861369	1369.237478	9.630000	-4.940000
	93.950374	1369.220751	9.652000	-5.040000
	94.050379	1369.213582	9.682000	-4.960000
	94.150385	1369.227921	9.680000	-4.780000
	94.250391	1369.247040	9.674000	-4.740000
	94.352396	1369.242261	9.640000	-4.940000
	94.450402	1369.220755	9.652000	-5.080000
	94.550408	1369.215975	9.700000	-4.940000
	94.650414	1369.235094	9.698000	-4.740000
	94.750420	1369.274532	9.672000	-4.570000
	94.850425	1369.280506	9.646000	-4.850000
	94.950431	1369.274532	9.642000	-4.950000
	95.050436	1369.263778	9.658000	-4.990000
	95.150442	1369.254219	9.684000	-4.980000
	95.250448	1369.254219	9.688000	-4.900000
	95.350454	1369.254219	9.688000	-4.900000
	95.450459	1369.274534	9.674000	-4.730000
	95.550465	1369.297239	9.640000	-4.710000
	95.650471	1369.272148	9.646000	-5.110000
	95.750476	1369.256615	9.638000	-5.030000
	95.850482	1369.255420	9.680000	-4.910000
	95.950488	1369.266174	9.680000	-4.810000
	96.050494	1369.294855	9.660000	-4.660000
	96.150499	1369.303220	9.656000	-4.830000
	96.250505	1369.302025	9.632000	-4.910000
	96.350511	1369.274544	9.656000	-5.130000
	96.450517	1369.247064	9.670000	-5.130000
	96.550522	1369.261403	9.680000	-4.780000
	96.650528	1369.273353	9.680000	-4.800000
	96.750534	1369.288888	9.666000	-4.770000
	96.850540	1369.282913	9.652000	-4.950000
	96.950545	1369.282913	9.652000	-4.950000
	97.049551	1369.285303	9.642000	-4.880000
	97.149557	1369.257822	9.654000	-5.130000
	97.249562	1369.238705	9.682000	-5.060000
	97.349568	1369.253045	9.688000	-4.780000
	97.449574	1369.272164	9.682000	-4.740000
	97.549580	1369.266190	9.646000	-4.950000
	97.649585	1369.266190	9.630000	-4.900000
	97.749591	1369.242294	9.676000	-5.100000
	97.849597	1369.237514	9.686000	-4.940000
	97.949603	1369.263804	9.684000	-4.680000
	98.049608	1369.284119	9.670000	-4.730000
	98.149614	1369.281729	9.648000	-4.920000
	98.249619	1369.256638	9.640000	-5.110000
	98.349625	1369.242300	9.678000	-5.020000
	98.449631	1369.242300	9.678000	-5.020000
	98.549637	1369.248275	9.674000	-4.850000
	98.649642	1369.259029	9.706000	-4.810000
	98.749648	1369.269784	9.680000	-4.810000
	98.849654	1369.275759	9.650000	-4.850000
	98.949660	1369.259031	9.660000	-5.040000
	99.049665	1369.226772	9.658000	-5.170000
	99.149671	1369.220798	9.668000	-4.950000
	99.249677	1369.244697	9.680000	-4.700000
	99.349682	1369.251867	9.674000	-4.840000
	99.449688	1369.282938	9.632000	-4.640000
	99.549694	1369.274574	9.628000	-4.970000
	99.649700	1369.270989	9.624000	-4.930000
	99.749705	1369.257845	9.684000	-5.010000
	99.849711	1369.279355	9.680000	-4.720000
	99.949717	1369.294890	9.654000	-4.770000
	100.049723	1369.294890	9.654000	-4.770000
	100.149728	1369.296085	9.636000	-4.890000
	100.249734	1369.293695	9.656000	-4.920000
	100.349740	1369.265020	9.684000	-5.140000
	100.449745	1369.269800	9.704000	-4.860000
	100.549751	1369.281749	9.708000	-4.800000
	100.649757	1369.302064	9.666000	-4.730000
	100.749763	1369.306844	9.636000	-4.860000
	100.849768	1369.288921	9.642000	-5.050000
	100.949774	1369.250688	9.646000	-5.220000
	101.049780	1369.232766	9.672000	-5.050000
	101.149786	1369.242326	9.694000	-4.820000
	101.249791	1369.269811	9.678000	-4.670000
	101.349797	1369.284151	9.660000	-4.780000
	101.449802	1369.296100	9.650000	-4.800000
	101.549809	1369.282957	9.646000	-5.010000
	101.649814	1369.282957	9.646000	-5.010000
	101.749820	1369.265034	9.670000	-5.050000
	101.849825	1369.257865	9.686000	-4.960000
	101.949831	1369.261449	9.698000	-4.870000
	102.049837	1369.276984	9.672000	-4.770000
	102.149843	1369.290129	9.636000	-4.790000
	102.249848	1369.282959	9.636000	-4.960000
	102.349854	1369.261452	9.674000	-5.080000
	102.449860	1369.257868	9.670000	-4.930000
	102.549866	1369.281768	9.682000	-4.700000
	102.650871	1369.285353	9.682000	-4.870000
	102.749877	1369.284158	9.654000	-4.910000
	102.849883	1369.272209	9.622000	-5.000000
	102.949888	1369.254287	9.642000	-5.050000
	103.049894	1369.244728	9.682000	-4.980000
	103.149900	1369.244728	9.682000	-4.980000
	103.249906	1369.248312	9.698000	-4.870000
	103.352911	1369.280579	9.678000	-4.630000
	103.449917	1369.290138	9.672000	-4.820000
	103.549922	1369.290138	9.644000	-4.900000
	103.649929	1369.276995	9.642000	-5.010000
	103.749934	1369.268631	9.668000	-4.970000
	103.849940	1369.255487	9.676000	-5.010000
	103.949945	1369.275802	9.680000	-4.730000
	104.049951	1369.286557	9.674000	-4.810000
	104.149957	1369.292531	9.634000	-4.850000
	104.249963	1369.281777	9.644000	-4.990000
	104.349968	1369.261465	9.656000	-5.070000
	104.449974	1369.245932	9.690000	-5.030000
	104.549980	1369.254297	9.694000	-4.830000
	104.649986	1369.277002	9.678000	-4.710000
	104.749991	1369.277002	9.678000	-4.710000
	104.849997	1369.290147	9.626000	-4.790000
	104.950003	1369.278198	9.628000	-5.000000
	105.050008	1369.249523	9.642000	-5.140000
	105.150014	1369.239964	9.704000	-4.980000
	105.250020	1369.236379	9.696000	-4.930000
	105.350026	1369.268645	9.678000	-4.630000
	105.450031	1369.281790	9.664000	-4.790000
	105.550037	1369.273425	9.656000	-4.970000
	105.650043	1369.251919	9.650000	-5.080000
	105.750049	1369.241165	9.686000	-4.990000
	105.850054	1369.235191	9.696000	-4.950000
	105.950060	1369.256700	9.674000	-4.720000
	106.050066	1369.272235	9.678000	-4.770000
	106.200074	1369.257897	9.632000	-5.020000
	106.300080	1369.257897	9.632000	-5.020000
	106.400086	1369.230417	9.686000	-5.130000
	106.500092	1369.229222	9.684000	-4.910000
	106.600097	1369.254316	9.706000	-4.690000
	106.700103	1369.279412	9.658000	-4.690000
	106.803109	1369.261489	9.638000	-5.050000
	106.900114	1369.234009	9.662000	-5.130000
	107.000120	1369.214892	9.682000	-5.060000
	107.100126	1369.225646	9.714000	-4.810000
	107.200131	1369.236401	9.686000	-4.810000
	107.300137	1369.259105	9.680000	-4.710000
	107.400143	1369.261495	9.650000	-4.880000
	107.500149	1369.244767	9.654000	-5.040000
	107.600154	1369.231624	9.666000	-5.010000
	107.702160	1369.234014	9.690000	-4.880000
	107.800166	1369.250743	9.688000	-4.760000
	107.900171	1369.250743	9.688000	-4.760000
	108.000177	1369.260303	9.670000	-4.820000
	108.100183	1369.247160	9.634000	-5.010000
	108.200189	1369.229237	9.656000	-5.050000
	108.300194	1369.228042	9.696000	-4.910000
	108.400200	1369.230432	9.690000	-4.880000
	108.500206	1369.247162	9.652000	-4.760000
	108.600212	1369.229239	9.638000	-5.050000
	108.700217	1369.210123	9.664000	-5.060000
	108.800223	1369.208928	9.682000	-4.910000
	108.900229	1369.219682	9.694000	-4.810000
	109.000235	1369.232826	9.686000	-4.790000
	109.100240	1369.244775	9.650000	-4.800000
	109.200246	1369.249555	9.646000	-4.860000
	109.302252	1369.237607	9.672000	-5.000000
	109.400257	1369.237607	9.682000	-4.900000
	109.500263	1369.237607	9.682000	-4.900000
	109.600269	1369.250751	9.720000	-4.790000
	109.700274	1369.275846	9.672000	-4.690000
	109.800280	1369.271067	9.620000	-4.940000
	109.900286	1369.257923	9.652000	-5.010000
	110.000292	1369.241196	9.684000	-5.040000
	110.100297	1369.251950	9.708000	-4.810000
	110.200303	1369.273460	9.682000	-4.720000
	110.300309	1369.279435	9.636000	-4.850000
	110.400314	1369.262707	9.638000	-5.040000
	110.500320	1369.262707	9.670000	-4.900000
	110.600326	1369.278241	9.698000	-4.770000
	110.700332	1369.310508	9.656000	-4.630000
	110.800337	1369.314093	9.634000	-4.870000
	110.900343	1369.298560	9.638000	-5.030000
	111.000349	1369.298560	9.638000	-5.030000
	111.100355	1369.290195	9.674000	-4.970000
	111.200360	1369.280636	9.714000	-4.980000
	111.300366	1369.308122	9.682000	-4.670000
	111.400372	1369.309317	9.670000	-4.890000
	111.500377	1369.296174	9.632000	-5.010000
	111.600383	1369.261524	9.668000	-5.190000
	111.700389	1369.244797	9.678000	-5.040000
	111.800395	1369.247187	9.706000	-4.880000
	111.902400	1369.263916	9.680000	-4.760000
	112.000406	1369.278256	9.652000	-4.780000
	112.100412	1369.260333	9.666000	-5.050000
	112.200418	1369.240021	9.680000	-5.070000
	112.300423	1369.243606	9.688000	-4.870000
	112.400429	1369.259140	9.692000	-4.770000
	112.500434	1369.265115	9.658000	-4.850000
	112.600441	1369.265115	9.658000	-4.850000
	112.700446	1369.248387	9.658000	-5.040000
	112.800452	1369.238828	9.680000	-4.980000
	112.900457	1369.237634	9.698000	-4.910000
	113.000463	1369.248388	9.674000	-4.810000
	113.100469	1369.260337	9.644000	-4.800000
	113.200475	1369.250779	9.656000	-4.980000
	113.300480	1369.234051	9.672000	-5.040000
	113.400486	1369.228077	9.692000	-4.950000
	113.500492	1369.253172	9.714000	-4.690000
	113.600498	1369.265121	9.652000	-4.800000
	113.700503	1369.260342	9.652000	-4.940000
	113.800509	1369.235251	9.652000	-5.110000
	113.900515	1369.223302	9.686000	-5.000000
	114.003520	1369.219718	9.698000	-4.930000
	114.100526	1369.219718	9.698000	-4.930000
	114.200532	1369.242422	9.660000	-4.710000
	114.300538	1369.260347	9.672000	-4.750000
	114.400543	1369.243619	9.646000	-5.040000
	114.500549	1369.234060	9.684000	-4.980000
	114.599555	1369.226891	9.706000	-4.960000
	114.699560	1369.249596	9.668000	-4.710000
	114.799566	1369.273496	9.654000	-4.700000
	114.899572	1369.279471	9.648000	-4.850000
	114.999578	1369.257964	9.672000	-5.080000
	115.099583	1369.241236	9.674000	-5.040000
	115.199589	1369.234067	9.700000	-4.960000
	115.299595	1369.261552	9.676000	-4.670000
	115.399601	1369.262747	9.634000	-4.890000
	115.499606	1369.262747	9.656000	-4.900000
	115.599612	1369.246019	9.654000	-5.040000
	115.699617	1369.246019	9.654000	-5.040000
	115.799623	1369.242435	9.662000	-4.930000
	115.899629	1369.250799	9.696000	-4.830000
	115.999635	1369.269919	9.698000	-4.740000
	116.099640	1369.281869	9.644000	-4.800000
	116.199646	1369.277089	9.644000	-4.940000
	116.299652	1369.247219	9.662000	-5.150000
	116.399658	1369.238855	9.688000	-4.970000
	116.499663	1369.256780	9.688000	-4.750000
	116.599669	1369.266339	9.686000	-4.820000
	116.699675	1369.283069	9.666000	-4.760000
	116.799681	1369.272315	9.646000	-4.990000
	116.899686	1369.249613	9.672000	-5.090000
	116.999692	1369.242444	9.700000	-4.960000
	117.099698	1369.242444	9.700000	-4.960000
	117.199703	1369.257979	9.694000	-4.770000
	117.299709	1369.262758	9.678000	-4.860000
	117.399715	1369.257979	9.626000	-4.940000
	117.499721	1369.246030	9.684000	-5.000000
	117.599726	1369.224524	9.678000	-5.080000
	117.699732	1369.237668	9.710000	-4.790000
	117.799738	1369.255593	9.668000	-4.750000
	117.899744	1369.269932	9.636000	-4.780000
	117.999749	1369.265153	9.660000	-4.940000
	118.099755	1369.228115	9.660000	-5.210000
	118.199760	1369.218556	9.686000	-4.980000
	118.299766	1369.226921	9.690000	-4.830000
	118.399772	1369.244845	9.686000	-4.750000
	118.499778	1369.265160	9.638000	-4.730000
	118.599783	1369.263965	9.654000	-4.910000
	118.702789	1369.263965	9.654000	-4.910000
	118.799795	1369.240069	9.656000	-5.100000
	118.899801	1369.223341	9.698000	-5.040000
	118.999806	1369.222146	9.702000	-4.910000
	119.099812	1369.243656	9.676000	-4.720000
	119.199818	1369.257995	9.652000	-4.780000
	119.299823	1369.240073	9.654000	-5.050000
	119.399829	1369.218567	9.650000	-5.080000
	119.499835	1369.224541	9.698000	-4.850000
	119.599841	1369.243660	9.682000	-4.740000
	119.699846	1369.261585	9.678000	-4.750000
	119.799852	1369.260390	9.636000	-4.910000
	119.899858	1369.243662	9.652000	-5.040000
	119.999864	1369.226935	9.662000	-5.040000
	120.099869	1369.220961	9.710000	-4.950000
	120.199875	1369.220961	9.710000	-4.950000
	120.299881	1369.232910	9.698000	-4.800000
	120.399887	1369.267566	9.690000	-4.610000
	120.499892	1369.291467	9.654000	-4.700000
	120.599898	1369.286687	9.658000	-4.940000
	120.699903	1369.259206	9.666000	-5.130000
	120.799909	1369.236505	9.680000	-5.090000
	120.901915	1369.243674	9.686000	-4.840000
	120.999921	1369.254429	9.704000	-4.810000
	121.099926	1369.275939	9.682000	-4.720000
	121.199932	1369.279523	9.640000	-4.870000
	121.299938	1369.266380	9.630000	-5.010000
	121.399944	1369.246068	9.648000	-5.070000
	121.499949	1369.224561	9.686000	-5.080000
	121.599955	1369.230536	9.710000	-4.850000
	121.699961	1369.255631	9.690000	-4.690000
	121.799966	1369.255631	9.690000	-4.690000
	121.899972	1369.256826	9.670000	-4.890000
	121.999978	1369.248462	9.650000	-4.970000
	122.099984	1369.235318	9.658000	-5.010000
	122.199989	1369.219786	9.674000	-5.030000
	122.299995	1369.220981	9.688000	-4.890000
	122.400001	1369.223370	9.678000	-4.880000
	122.500007	1369.246075	9.688000	-4.710000
	122.600012	1369.268780	9.662000	-4.710000
	122.700018	1369.264000	9.636000	-4.940000
	122.800024	1369.229352	9.664000	-5.190000
	122.900029	1369.211430	9.662000	-5.050000
	123.000035	1369.212625	9.686000	-4.890000
	123.100041	1369.213820	9.688000	-4.890000
	123.201046	1369.230549	9.702000	-4.760000
	123.300052	1369.230549	9.702000	-4.760000
	123.401058	1369.247278	9.678000	-4.760000
	123.500064	1369.242499	9.662000	-4.940000
	123.601069	1369.232940	9.670000	-4.980000
	123.700075	1369.226966	9.652000	-4.950000
	123.800081	1369.219797	9.698000	-4.960000
	123.900086	1369.218602	9.710000	-4.910000
	124.000093	1369.229356	9.712000	-4.810000
	124.100098	1369.242500	9.690000	-4.790000
	124.200104	1369.250865	9.666000	-4.830000
	124.300109	1369.271180	9.636000	-4.730000
	124.400115	1369.249673	9.638000	-5.080000
	124.500121	1369.243699	9.658000	-4.950000
	124.600127	1369.219803	9.676000	-5.100000
	124.700132	1369.200686	9.694000	-5.060000
	124.800138	1369.193517	9.704000	-4.960000
	124.900144	1369.193517	9.704000	-4.960000
	125.000150	1369.211441	9.724000	-4.750000
	125.100155	1369.223390	9.672000	-4.800000
	125.200161	1369.215026	9.674000	-4.970000
	125.300167	1369.191131	9.680000	-5.100000
	125.400172	1369.188741	9.696000	-4.920000
	125.500178	1369.223396	9.714000	-4.610000
	125.600184	1369.240126	9.692000	-4.760000
	125.700190	1369.240126	9.692000	-4.760000
	125.800195	1369.259245	9.664000	-4.740000
	125.900201	1369.258050	9.642000	-4.910000
	126.000207	1369.246102	9.644000	-5.000000
	126.100213	1369.223401	9.670000	-5.090000
	126.200218	1369.219816	9.698000	-4.930000
	126.300224	1369.238935	9.716000	-4.740000
	126.400229	1369.247300	9.690000	-4.830000
	126.500236	1369.272395	9.684000	-4.690000
	126.600241	1369.272395	9.684000	-4.690000
	126.700247	1369.247304	9.672000	-5.110000
	126.801252	1369.230577	9.690000	-5.040000
	126.900258	1369.218628	9.718000	-5.000000
	127.000264	1369.217433	9.706000	-4.910000
	127.100270	1369.242528	9.700000	-4.690000
	127.200275	1369.249698	9.654000	-4.840000
	127.300281	1369.255672	9.632000	-4.850000
	127.400287	1369.236555	9.648000	-5.060000
	127.500293	1369.222217	9.678000	-5.020000
	127.600298	1369.206685	9.696000	-5.030000
	127.703304	1369.206685	9.696000	-5.030000
	127.800310	1369.197126	9.712000	-4.980000
	127.950318	1369.211465	9.654000	-4.780000
	128.050324	1369.199517	9.658000	-5.000000
	128.150330	1369.187569	9.658000	-5.000000
	128.250336	1369.169648	9.686000	-5.050000
	128.350341	1369.156505	9.696000	-5.010000
	128.450347	1369.152921	9.710000	-4.930000
	128.550353	1369.172039	9.704000	-4.740000
	128.650358	1369.186378	9.670000	-4.780000
	128.764365	1369.193547	9.650000	-4.840000
	128.850370	1369.193547	9.650000	-4.840000
	128.952375	1369.170847	9.666000	-5.090000
	129.050381	1369.151731	9.700000	-5.060000
	129.152387	1369.154120	9.718000	-4.880000
	129.251393	1369.176824	9.724000	-4.710000
	129.352398	1369.199528	9.696000	-4.710000
	129.451404	1369.213867	9.662000	-4.780000
	129.552410	1369.200724	9.658000	-5.010000
	129.655416	1369.181607	9.706000	-5.060000
	129.750422	1369.181607	9.706000	-5.060000
	129.850427	1369.186387	9.716000	-4.860000
	129.952433	1369.192361	9.694000	-4.850000
	130.050438	1369.215065	9.694000	-4.710000
	130.152444	1369.227014	9.656000	-4.800000
	130.250450	1369.222235	9.674000	-4.940000
	130.350456	1369.213871	9.654000	-4.970000
	130.450461	1369.199533	9.644000	-5.020000
	130.550467	1369.187585	9.662000	-5.000000
	130.651473	1369.156523	9.690000	-5.160000
	130.750478	1369.155328	9.710000	-4.910000
	130.850484	1369.166082	9.722000	-4.810000
	130.950490	1369.166082	9.722000	-4.810000
	131.050496	1369.179225	9.696000	-4.790000
	131.200504	1369.211490	9.676000	-4.630000
	131.300510	1369.209100	9.650000	-4.920000
	131.400516	1369.192373	9.642000	-5.040000
	131.500521	1369.168478	9.662000	-5.100000
	131.600527	1369.151752	9.712000	-5.040000
	131.700533	1369.143388	9.710000	-4.970000
	131.800539	1369.158922	9.718000	-4.770000
	131.900544	1369.184015	9.702000	-4.690000
	132.001550	1369.203134	9.662000	-4.740000
	132.103556	1369.203134	9.662000	-4.740000
	132.200562	1369.204329	9.654000	-4.890000
	132.299567	1369.186407	9.662000	-5.050000
	132.402573	1369.160123	9.658000	-5.120000
	132.499578	1369.146981	9.700000	-5.010000
	132.599584	1369.152955	9.714000	-4.850000
	132.699590	1369.173268	9.740000	-4.730000
	132.799596	1369.197167	9.668000	-4.700000
	132.904602	1369.192388	9.644000	-4.940000
	132.999607	1369.189998	9.674000	-4.920000
	133.099613	1369.161325	9.658000	-5.140000
	133.199618	1369.152961	9.684000	-4.970000
	133.299624	1369.152961	9.684000	-4.970000
	133.400630	1369.126678	9.704000	-5.120000
	133.499636	1369.154161	9.716000	-4.670000
	133.599641	1369.174474	9.702000	-4.730000
	133.699647	1369.182838	9.664000	-4.830000
	133.799653	1369.191202	9.660000	-4.830000
	133.899659	1369.180449	9.662000	-4.990000
	134.009665	1369.162528	9.682000	-5.050000
	134.099670	1369.162528	9.682000	-5.050000
	134.199676	1369.150580	9.714000	-5.000000
	134.299682	1369.154164	9.714000	-4.870000
	134.399687	1369.158944	9.708000	-4.860000
	134.499693	1369.166113	9.692000	-4.840000
	134.599699	1369.181646	9.678000	-4.770000
	134.699704	1369.188816	9.656000	-4.840000
	134.802710	1369.178062	9.664000	-4.990000
	134.899716	1369.154168	9.680000	-5.100000
	134.999722	1369.144610	9.692000	-4.980000
	135.099727	1369.120716	9.682000	-5.100000
	135.199733	1369.118326	9.718000	-4.920000
	135.303739	1369.135054	9.718000	-4.760000
	135.399745	1369.145808	9.726000	-4.810000
	135.499750	1369.150587	9.706000	-4.860000
	135.611756	1369.150587	9.706000	-4.860000
	135.799767	1369.162536	9.734000	-4.800000
	135.905773	1369.187629	9.738000	-4.690000
	135.999779	1369.192409	9.686000	-4.860000
	136.099784	1369.194798	9.668000	-4.880000
	136.199790	1369.203163	9.660000	-4.830000
	136.299796	1369.198383	9.652000	-4.940000
	136.449804	1369.193604	9.658000	-4.940000
	136.550810	1369.167320	9.658000	-5.120000
	136.649816	1369.152982	9.688000	-5.020000
	136.749822	1369.163736	9.716000	-4.810000
	136.899830	1369.174490	9.716000	-4.810000
	136.999836	1369.188829	9.724000	-4.780000
	137.099842	1369.204363	9.708000	-4.770000
	137.199847	1369.206752	9.696000	-4.880000
	137.299853	1369.234237	9.658000	-4.670000
	137.399859	1369.237822	9.668000	-4.870000
	137.499865	1369.250966	9.648000	-4.790000
	137.599870	1369.246187	9.648000	-4.940000
	137.699876	1369.234238	9.670000	-5.000000
	137.799881	1369.207953	9.666000	-5.120000
	137.899888	1369.174501	9.716000	-5.180000
	138.002893	1369.151801	9.708000	-5.090000
	138.099899	1369.151801	9.708000	-5.090000
	138.199904	1369.144632	9.716000	-4.960000
	138.299910	1369.145827	9.706000	-4.890000
	138.414917	1369.161360	9.716000	-4.770000
	138.500922	1369.188844	9.720000	-4.670000
	138.599927	1369.204378	9.688000	-4.770000
	138.699933	1369.213937	9.686000	-4.820000
	138.800939	1369.224691	9.680000	-4.810000
	138.899945	1369.207964	9.652000	-5.040000
	138.999950	1369.172123	9.674000	-5.200000
	139.099956	1369.172123	9.674000	-5.200000
	139.199962	1369.144644	9.678000	-5.130000
	139.299967	1369.131502	9.708000	-5.010000
	139.399973	1369.130307	9.718000	-4.910000
	139.499979	1369.153010	9.734000	-4.710000
	139.600985	1369.169739	9.718000	-4.760000
	139.699990	1369.193637	9.694000	-4.700000
	139.799996	1369.209171	9.684000	-4.770000
	139.900002	1369.229486	9.660000	-4.730000
	140.000008	1369.225901	9.660000	-4.930000
	140.100013	1369.206784	9.674000	-5.060000
	140.201019	1369.184084	9.674000	-5.090000
	140.300025	1369.155410	9.664000	-5.140000
	140.400031	1369.132711	9.696000	-5.090000
	140.500036	1369.132711	9.696000	-5.090000
	140.600042	1369.121958	9.688000	-4.990000
	140.700047	1369.127932	9.722000	-4.850000
	140.800053	1369.143465	9.708000	-4.770000
	140.900059	1369.161389	9.708000	-4.750000
	141.000065	1369.180507	9.678000	-4.740000
	141.100070	1369.184092	9.680000	-4.870000
	141.200076	1369.199625	9.682000	-4.770000
	141.300082	1369.211574	9.662000	-4.800000
	141.400087	1369.215159	9.662000	-4.870000
	141.500093	1369.212769	9.674000	-4.920000
	141.600099	1369.210380	9.650000	-4.920000
	141.700105	1369.191263	9.652000	-5.060000
	141.800110	1369.157811	9.658000	-5.180000
	141.900116	1369.157811	9.658000	-5.180000
	142.000122	1369.135112	9.682000	-5.090000
	142.102128	1369.107634	9.684000	-5.130000
	142.200133	1369.100465	9.692000	-4.960000
	142.300139	1369.095686	9.712000	-4.940000
	142.400145	1369.087323	9.736000	-4.970000
	142.500151	1369.102856	9.728000	-4.770000
	142.600156	1369.123169	9.716000	-4.730000
	142.700162	1369.147067	9.708000	-4.700000
	142.800168	1369.157820	9.702000	-4.810000
	142.900173	1369.166184	9.680000	-4.830000
	143.000179	1369.180523	9.676000	-4.780000
	143.100185	1369.176938	9.642000	-4.930000
	143.200191	1369.160212	9.678000	-5.040000
	143.300196	1369.147069	9.676000	-5.010000
	143.400202	1369.147069	9.676000	-5.010000
	143.500208	1369.127954	9.678000	-5.060000
	143.600214	1369.120785	9.690000	-4.960000
	143.700219	1369.108838	9.704000	-5.000000
	143.800225	1369.096891	9.720000	-5.000000
	143.900230	1369.100475	9.724000	-4.870000
	144.002236	1369.107644	9.708000	-4.840000
	144.100242	1369.132736	9.726000	-4.690000
	144.200248	1369.166195	9.700000	-4.620000
	144.300253	1369.204435	9.688000	-4.580000
	144.400259	1369.210410	9.670000	-4.850000
	144.500265	1369.202046	9.656000	-4.970000
	144.600271	1369.204435	9.656000	-4.880000
	144.700276	1369.192487	9.670000	-5.000000
	144.800282	1369.192487	9.670000	-5.000000
	144.900288	1369.167398	9.688000	-5.110000
	145.001294	1369.148282	9.694000	-5.060000
	145.100299	1369.145892	9.700000	-4.920000
	145.200305	1369.144698	9.720000	-4.910000
	145.300311	1369.179352	9.720000	-4.610000
	145.400316	1369.209226	9.678000	-4.650000
	145.500322	1369.215200	9.670000	-4.850000
	145.600328	1369.211616	9.680000	-4.930000
	145.700334	1369.199668	9.638000	-5.000000
	145.800339	1369.178162	9.678000	-5.080000
	145.900345	1369.163825	9.688000	-5.020000
	146.000350	1369.163825	9.688000	-5.020000
	146.100357	1369.153072	9.718000	-4.990000
	146.200362	1369.147098	9.712000	-4.950000
	146.300368	1369.159046	9.716000	-4.800000
	146.400373	1369.178165	9.714000	-4.740000
	146.500379	1369.203259	9.708000	-4.690000
	146.600385	1369.236719	9.688000	-4.620000
	146.700391	1369.249863	9.670000	-4.790000
	146.800396	1369.255838	9.668000	-4.850000
	146.900402	1369.263008	9.650000	-4.840000
	147.003408	1369.265397	9.642000	-4.880000
	147.100414	1369.248670	9.640000	-5.040000
	147.203420	1369.222384	9.666000	-5.120000
	147.300425	1369.187737	9.676000	-5.190000
	147.400431	1369.175789	9.670000	-5.000000
	147.500436	1369.175789	9.716000	-4.900000
	147.600442	1369.175789	9.716000	-4.900000
	147.705448	1369.187738	9.716000	-4.800000
	147.850457	1369.205662	9.716000	-4.750000
	147.956462	1369.220001	9.696000	-4.780000
	148.050468	1369.222391	9.666000	-4.880000
	148.152474	1369.214027	9.652000	-4.970000
	148.251480	1369.204468	9.656000	-4.980000
	148.350485	1369.165043	9.660000	-5.230000
	148.451491	1369.147122	9.682000	-5.050000
	148.550497	1369.129201	9.710000	-5.050000
	148.650502	1369.132786	9.698000	-4.870000
	148.750508	1369.129201	9.716000	-4.930000
	148.850513	1369.141150	9.738000	-4.800000
	148.950520	1369.149514	9.726000	-4.830000
	149.050525	1369.149514	9.726000	-4.830000
	149.150531	1369.175802	9.700000	-4.680000
	149.250536	1369.193726	9.692000	-4.750000
	149.350542	1369.202090	9.684000	-4.830000
	149.450548	1369.200895	9.664000	-4.910000
	149.549554	1369.192531	9.654000	-4.970000
	149.649559	1369.178194	9.666000	-5.020000
	149.749565	1369.157883	9.680000	-5.070000
	149.849571	1369.133989	9.672000	-5.100000
	149.949576	1369.125626	9.700000	-4.970000
	150.049582	1369.129210	9.698000	-4.870000
	150.149588	1369.136379	9.712000	-4.840000
	150.249594	1369.144743	9.712000	-4.830000
	150.349599	1369.165056	9.702000	-4.730000
	150.449605	1369.185369	9.684000	-4.730000
	150.549611	1369.185369	9.684000	-4.730000
	150.652617	1369.208073	9.682000	-4.710000
	150.749622	1369.209268	9.660000	-4.890000
	150.849628	1369.197320	9.660000	-5.000000
	150.949634	1369.187762	9.656000	-4.980000
	151.049640	1369.161478	9.672000	-5.120000
	151.149645	1369.141167	9.698000	-5.070000
	151.249651	1369.139972	9.694000	-4.910000
	151.349657	1369.153116	9.712000	-4.790000
	151.449662	1369.173429	9.720000	-4.730000
	151.549668	1369.186573	9.694000	-4.790000
	151.649674	1369.215252	9.678000	-4.660000
	151.749680	1369.220032	9.664000	-4.860000
	151.849685	1369.220032	9.664000	-4.860000
	151.949691	1369.214058	9.670000	-4.950000
	152.049697	1369.208083	9.666000	-4.950000
	152.149703	1369.196135	9.668000	-5.000000
	152.249708	1369.181798	9.672000	-5.020000
	152.349714	1369.159098	9.672000	-5.090000
	152.449719	1369.143566	9.684000	-5.030000
	152.549725	1369.130424	9.686000	-5.010000
	152.649731	1369.128034	9.702000	-4.920000
	152.749737	1369.131619	9.724000	-4.870000
	152.849742	1369.159102	9.710000	-4.670000
	152.949748	1369.167466	9.712000	-4.830000
	153.049754	1369.185389	9.664000	-4.750000
	153.149760	1369.190169	9.688000	-4.860000
	153.249765	1369.183000	9.664000	-4.960000
	153.349771	1369.163884	9.646000	-5.060000
	153.449777	1369.163884	9.646000	-5.060000
	153.549782	1369.144768	9.678000	-5.060000
	153.649788	1369.143573	9.714000	-4.910000
	153.752794	1369.150742	9.714000	-4.840000
	153.849800	1369.183006	9.710000	-4.630000
	153.949805	1369.193760	9.684000	-4.810000
	154.049811	1369.211684	9.680000	-4.750000
	154.149817	1369.205710	9.642000	-4.950000
	154.249823	1369.212879	9.650000	-4.840000
	154.349828	1369.187789	9.660000	-5.110000
	154.449834	1369.156726	9.672000	-5.160000
	154.549839	1369.141195	9.700000	-5.030000
	154.649846	1369.131637	9.706000	-4.980000
	154.749851	1369.138806	9.726000	-4.840000
	154.849857	1369.160314	9.712000	-4.720000
	154.949862	1369.188993	9.710000	-4.660000
	155.049868	1369.209306	9.676000	-4.730000
	155.149874	1369.209306	9.676000	-4.730000
	155.249880	1369.218866	9.664000	-4.820000
	155.349885	1369.237985	9.672000	-4.740000
	155.449891	1369.228426	9.662000	-4.980000
	155.549897	1369.199752	9.658000	-5.140000
	155.649903	1369.184220	9.686000	-5.030000
	155.749908	1369.183025	9.702000	-4.910000
	155.849914	1369.175856	9.718000	-4.960000
	155.949920	1369.189000	9.736000	-4.790000
	156.049925	1369.211704	9.692000	-4.710000
	156.149931	1369.218873	9.682000	-4.840000
	156.249937	1369.233212	9.676000	-4.780000
	156.349943	1369.240382	9.662000	-4.840000
	156.449948	1369.235602	9.666000	-4.940000
	156.549954	1369.223654	9.666000	-5.000000
	156.649960	1369.223654	9.666000	-5.000000
	156.749966	1369.193785	9.682000	-5.150000
	156.849971	1369.179448	9.686000	-5.020000
	156.949977	1369.177058	9.702000	-4.920000
	157.049983	1369.174669	9.730000	-4.920000
	157.151989	1369.197372	9.718000	-4.710000
	157.249994	1369.227247	9.700000	-4.650000
	157.350000	1369.241586	9.696000	-4.780000
	157.450006	1369.230833	9.658000	-4.990000
	157.556012	1369.206937	9.658000	-5.100000
	157.638016	1369.206937	9.658000	-5.100000
	157.800025	1369.214107	9.662000	-4.840000
	157.900031	1369.212912	9.662000	-4.910000
	158.000037	1369.189016	9.676000	-5.100000
	158.100043	1369.177068	9.700000	-5.000000
	158.200048	1369.196187	9.716000	-4.740000
	158.300054	1369.222476	9.730000	-4.680000
	158.400060	1369.234426	9.668000	-4.800000
	158.500066	1369.267887	9.662000	-4.620000
	158.600071	1369.258328	9.662000	-4.980000
	158.720078	1369.232042	9.704000	-5.120000
	158.800083	1369.221289	9.704000	-4.990000
	158.900088	1369.221289	9.704000	-4.990000
	159.004095	1369.238018	9.686000	-4.760000
	159.100100	1369.243993	9.656000	-4.850000
	159.200106	1369.241603	9.658000	-4.920000
	159.300111	1369.214123	9.696000	-5.130000
	159.450120	1369.235632	9.704000	-4.720000
	159.500123	1369.252362	9.686000	-4.760000
	159.650131	1369.242803	9.668000	-4.980000
	159.750137	1369.230855	9.660000	-5.000000
	159.850143	1369.221296	9.656000	-4.980000
	159.950149	1369.221296	9.656000	-4.980000
	160.050154	1369.205763	9.696000	-5.030000
	160.150160	1369.187842	9.704000	-5.050000
	160.250165	1369.177088	9.736000	-4.990000
	160.350172	1369.190232	9.712000	-4.790000
	160.450177	1369.211741	9.710000	-4.720000
	160.550183	1369.226080	9.678000	-4.780000
	160.650188	1369.244005	9.678000	-4.750000
	160.750194	1369.236836	9.646000	-4.960000
	160.850200	1369.211745	9.664000	-5.110000
	160.950206	1369.198602	9.692000	-5.010000
	161.050211	1369.183070	9.694000	-5.030000
	161.150217	1369.177096	9.718000	-4.950000
	161.250223	1369.195020	9.716000	-4.750000
	161.350229	1369.220114	9.696000	-4.690000
	161.450234	1369.218919	9.684000	-4.910000
	161.550240	1369.218919	9.684000	-4.910000
	161.650246	1369.217724	9.656000	-4.910000
	161.750251	1369.199802	9.668000	-5.050000
	161.850257	1369.172323	9.682000	-5.130000
	161.950263	1369.155597	9.706000	-5.040000
	162.050269	1369.160376	9.736000	-4.860000
	162.150274	1369.168740	9.724000	-4.830000
	162.250280	1369.191444	9.686000	-4.710000
	162.350286	1369.192639	9.670000	-4.890000
	162.450292	1369.193833	9.658000	-4.890000
	162.550297	1369.173522	9.666000	-5.070000
	162.650303	1369.159185	9.700000	-5.020000
	162.750309	1369.153211	9.714000	-4.950000
	162.850315	1369.154406	9.706000	-4.890000
	162.950320	1369.154406	9.706000	-4.890000
	163.050326	1369.168745	9.708000	-4.780000
	163.150331	1369.197424	9.702000	-4.660000
	163.250337	1369.227298	9.688000	-4.650000
	163.350343	1369.230883	9.688000	-4.870000
	163.450349	1369.224909	9.676000	-4.950000
	163.550354	1369.201013	9.698000	-5.100000
	163.650360	1369.185481	9.696000	-5.030000
	163.750366	1369.183091	9.710000	-4.920000
	163.850372	1369.204600	9.714000	-4.720000
	163.950377	1369.222524	9.688000	-4.750000
	164.050383	1369.232084	9.672000	-4.820000
	164.150389	1369.235668	9.658000	-4.870000
	164.250394	1369.214162	9.674000	-5.080000
	164.350400	1369.214162	9.674000	-5.080000
	164.450406	1369.190267	9.690000	-5.100000
	164.550412	1369.181903	9.712000	-4.970000
	164.650417	1369.193852	9.732000	-4.800000
	164.750423	1369.208191	9.712000	-4.780000
	164.850429	1369.226115	9.720000	-4.750000
	164.950435	1369.247624	9.680000	-4.720000
	165.050440	1369.248819	9.676000	-4.890000
	165.150446	1369.226118	9.676000	-5.090000
	165.250452	1369.197444	9.700000	-5.140000
	165.350458	1369.177133	9.694000	-5.070000
	165.450463	1369.177133	9.742000	-4.900000
	165.550469	1369.195057	9.712000	-4.750000
	165.650475	1369.204616	9.706000	-4.820000
	165.750480	1369.211785	9.684000	-4.840000
	165.850486	1369.215370	9.662000	-4.870000
	165.950492	1369.210590	9.668000	-4.940000
	166.050498	1369.210590	9.668000	-4.940000
	166.150503	1369.184306	9.676000	-5.120000
	166.250509	1369.179527	9.714000	-4.940000
	166.350515	1369.187891	9.714000	-4.830000
	166.450521	1369.207009	9.678000	-4.740000
	166.550526	1369.215374	9.670000	-4.830000
	166.650532	1369.221348	9.678000	-4.850000
	166.752538	1369.196258	9.666000	-5.110000
	166.850543	1369.184310	9.682000	-5.000000
	166.953549	1369.166389	9.714000	-5.050000
	167.049555	1369.172363	9.718000	-4.850000
	167.149560	1369.174753	9.722000	-4.880000
	167.249566	1369.199846	9.690000	-4.690000
	167.349572	1369.208211	9.662000	-4.830000
	167.449577	1369.208211	9.660000	-4.900000
	167.549583	1369.189094	9.678000	-5.060000
	167.649589	1369.189094	9.678000	-5.060000
	167.749595	1369.166394	9.674000	-5.090000
	167.849600	1369.171173	9.722000	-4.860000
	167.949606	1369.193877	9.724000	-4.710000
	168.049612	1369.201046	9.684000	-4.840000
	168.149618	1369.207021	9.650000	-4.850000
	168.249623	1369.208216	9.682000	-4.890000
	168.349629	1369.184320	9.672000	-5.100000
	168.449635	1369.164010	9.712000	-5.070000
	168.549640	1369.181933	9.712000	-4.750000
	168.649646	1369.193882	9.710000	-4.800000
	168.749652	1369.220171	9.692000	-4.680000
	168.850657	1369.235705	9.662000	-4.770000
	168.949663	1369.216589	9.666000	-5.060000
	169.049669	1369.190304	9.706000	-5.120000
	169.149675	1369.190304	9.706000	-5.120000
	169.249681	1369.190304	9.696000	-4.900000
	169.349686	1369.190304	9.722000	-4.900000
	169.449692	1369.213008	9.706000	-4.710000
	169.549697	1369.240493	9.674000	-4.670000
	169.649704	1369.233324	9.662000	-4.960000
	169.749709	1369.232129	9.678000	-4.910000
	169.849715	1369.199870	9.678000	-5.170000
	169.949720	1369.185533	9.714000	-5.020000
	170.049726	1369.187923	9.700000	-4.880000
	170.149732	1369.222578	9.684000	-4.610000
	170.249738	1369.238112	9.668000	-4.770000
	170.349743	1369.244087	9.676000	-4.850000
	170.449749	1369.227359	9.676000	-5.040000
	170.549755	1369.214216	9.682000	-5.010000
	170.649761	1369.209437	9.712000	-4.940000
	170.749766	1369.234531	9.722000	-4.690000
	170.849772	1369.234531	9.722000	-4.690000
	170.949778	1369.254846	9.692000	-4.730000
	171.049783	1369.267990	9.666000	-4.790000
	171.149789	1369.263211	9.664000	-4.940000
	171.249795	1369.240509	9.680000	-5.090000
	171.349801	1369.230951	9.698000	-4.980000
	171.449806	1369.205860	9.716000	-5.110000
	171.549812	1369.215419	9.730000	-4.820000
	171.649818	1369.224979	9.702000	-4.820000
	171.749824	1369.242903	9.680000	-4.750000
	171.849829	1369.252463	9.658000	-4.820000
	171.949835	1369.236930	9.650000	-5.030000
	172.049840	1369.217813	9.694000	-5.060000
	172.149847	1369.201086	9.722000	-5.040000
	172.251852	1369.208255	9.718000	-4.840000
	172.349858	1369.226179	9.704000	-4.750000
	172.449863	1369.256054	9.686000	-4.650000
	172.549869	1369.256054	9.686000	-4.650000
	172.649875	1369.266809	9.662000	-4.810000
	172.749881	1369.258445	9.648000	-4.970000
	172.849886	1369.239328	9.684000	-5.060000
	172.949892	1369.213043	9.708000	-5.120000
	173.049898	1369.215432	9.726000	-4.880000
	173.149904	1369.228576	9.700000	-4.790000
	173.249909	1369.240526	9.674000	-4.800000
	173.349915	1369.264426	9.680000	-4.700000
	173.449921	1369.256062	9.654000	-4.970000
	173.549926	1369.226192	9.658000	-5.150000
	173.649932	1369.214244	9.678000	-5.000000
	173.749938	1369.197517	9.706000	-5.040000
	173.856944	1369.208271	9.714000	-4.810000
	173.949949	1369.235756	9.722000	-4.670000
	174.050955	1369.247705	9.688000	-4.800000
	174.149961	1369.247705	9.688000	-4.800000
	174.249967	1369.254874	9.668000	-4.840000
	174.349972	1369.240536	9.672000	-5.020000
	174.449978	1369.209473	9.668000	-5.160000
	174.549984	1369.196330	9.698000	-5.010000
	174.649990	1369.204694	9.714000	-4.830000
	174.749995	1369.226203	9.714000	-4.720000
	174.850001	1369.248908	9.672000	-4.710000
	174.951006	1369.254882	9.676000	-4.850000
	175.050012	1369.240544	9.664000	-5.020000
	175.150018	1369.227401	9.674000	-5.010000
	175.250024	1369.211869	9.698000	-5.030000
	175.350029	1369.214258	9.728000	-4.880000
	175.460036	1369.233378	9.696000	-4.740000
	175.551041	1369.233378	9.696000	-4.740000
	175.650047	1369.257277	9.678000	-4.700000
	175.750052	1369.262057	9.676000	-4.860000
	175.850058	1369.251303	9.662000	-4.990000
	175.950064	1369.242939	9.658000	-4.970000
	176.050069	1369.226212	9.688000	-5.040000
	176.150075	1369.222627	9.720000	-4.930000
	176.250081	1369.228602	9.724000	-4.850000
	176.350087	1369.235771	9.698000	-4.840000
	176.450092	1369.253696	9.690000	-4.750000
	176.550098	1369.252501	9.658000	-4.910000
	176.650104	1369.241747	9.666000	-4.990000
	176.750110	1369.230993	9.690000	-4.990000
	176.856116	1369.225019	9.710000	-4.950000
	176.950121	1369.240553	9.724000	-4.770000
	177.050127	1369.263258	9.722000	-4.710000
	177.150132	1369.263258	9.722000	-4.710000
	177.250138	1369.277598	9.670000	-4.780000
	177.350144	1369.262065	9.666000	-5.030000
	177.450150	1369.244142	9.684000	-5.050000
	177.550155	1369.222636	9.702000	-5.080000
	177.650161	1369.232195	9.720000	-4.820000
	177.750167	1369.275218	9.720000	-4.540000
	177.850173	1369.285973	9.690000	-4.810000
	177.953178	1369.296728	9.664000	-4.810000
	178.050184	1369.275221	9.668000	-5.080000
	178.151190	1369.251324	9.676000	-5.100000
	178.250196	1369.236986	9.700000	-5.020000
	178.353201	1369.236986	9.700000	-4.900000
	178.450207	1369.254911	9.726000	-4.750000
	178.553213	1369.254911	9.726000	-4.750000
	178.650218	1369.259690	9.682000	-4.860000
	178.750224	1369.260885	9.664000	-4.890000
	178.851230	1369.246547	9.660000	-5.020000
	178.953236	1369.225041	9.688000	-5.080000
	179.050241	1369.228625	9.718000	-4.870000
	179.150247	1369.241770	9.700000	-4.790000
	179.265253	1369.245354	9.678000	-4.870000
	179.355258	1369.229822	9.680000	-5.030000
	179.450264	1369.213094	9.710000	-5.040000
	179.550270	1369.233409	9.702000	-4.730000
	179.652276	1369.233409	9.702000	-4.730000
	179.752281	1369.269260	9.686000	-4.600000
	179.850287	1369.274040	9.662000	-4.860000
	179.950293	1369.257312	9.664000	-5.040000
	180.050298	1369.226248	9.674000	-5.160000
	180.152304	1369.216689	9.704000	-4.980000
	180.250309	1369.232223	9.722000	-4.770000
	180.350316	1369.244173	9.690000	-4.800000
	180.450321	1369.254927	9.684000	-4.810000
	180.551327	1369.258512	9.666000	-4.870000
	180.650332	1369.229837	9.688000	-5.140000
	180.752338	1369.247761	9.706000	-4.750000
	180.850344	1369.251346	9.714000	-4.870000
	180.950350	1369.270466	9.680000	-4.740000
	181.050355	1369.274051	9.666000	-4.870000
	181.150361	1369.274051	9.666000	-4.870000
	181.250367	1369.256128	9.678000	-5.050000
	181.350373	1369.242985	9.686000	-5.010000
	181.450378	1369.265690	9.718000	-4.710000
	181.550384	1369.282419	9.708000	-4.760000
	181.650390	1369.276445	9.686000	-4.950000
	181.750395	1369.260912	9.672000	-5.030000
	181.850401	1369.248963	9.674000	-5.000000
	181.950407	1369.250158	9.716000	-4.890000
	182.050413	1369.260913	9.722000	-4.810000
	182.150418	1369.271667	9.678000	-4.810000
	182.250424	1369.269277	9.658000	-4.920000
	182.350430	1369.262108	9.688000	-4.960000
	182.450436	1369.262108	9.688000	-4.960000
	182.552442	1369.258523	9.704000	-4.930000
	182.650447	1369.272863	9.718000	-4.780000
	182.750453	1369.280033	9.704000	-4.840000
	182.850459	1369.272863	9.670000	-4.960000
	182.952464	1369.247772	9.670000	-5.110000
	183.050470	1369.237019	9.708000	-4.990000
	183.150476	1369.252553	9.724000	-4.770000
	183.250481	1369.268088	9.674000	-4.770000
	183.350487	1369.262113	9.656000	-4.950000
	183.450493	1369.240607	9.680000	-5.080000
	183.552499	1369.238217	9.720000	-4.920000
	183.650504	1369.238217	9.720000	-4.920000
	183.750510	1369.254946	9.716000	-4.760000
	183.850515	1369.272871	9.680000	-4.750000
	183.950521	1369.280041	9.656000	-4.840000
	184.050527	1369.251365	9.678000	-5.140000
	184.150533	1369.237027	9.708000	-5.020000
	184.250538	1369.239417	9.718000	-4.880000
	184.350544	1369.275269	9.696000	-4.600000
	184.449550	1369.278854	9.656000	-4.870000
	184.549556	1369.268100	9.668000	-4.990000
	184.649561	1369.246593	9.682000	-5.080000
	184.749567	1369.246593	9.682000	-5.080000
	184.849573	1369.271688	9.710000	-4.690000
	184.949578	1369.266908	9.644000	-4.940000
	185.052584	1369.260934	9.718000	-4.950000
	185.149590	1369.284834	9.708000	-4.700000
	185.249596	1369.290809	9.690000	-4.850000
	185.349601	1369.294394	9.656000	-4.870000
	185.449607	1369.274081	9.678000	-5.070000
	185.549613	1369.268107	9.700000	-4.950000
	185.666619	1369.268107	9.700000	-4.950000
	185.753624	1369.278862	9.704000	-4.810000
	185.849630	1369.271692	9.640000	-4.960000
	185.961637	1369.264523	9.670000	-4.960000
	186.049642	1369.257354	9.726000	-4.960000
	186.149647	1369.274083	9.708000	-4.760000
	186.249653	1369.286033	9.688000	-4.800000
	186.349658	1369.278864	9.654000	-4.960000
	186.449664	1369.264525	9.692000	-5.020000
	186.549670	1369.265720	9.708000	-4.890000
	186.649676	1369.289621	9.704000	-4.700000
	186.754682	1369.300376	9.676000	-4.810000
	186.849687	1369.300376	9.676000	-4.810000
	186.949693	1369.275284	9.668000	-5.110000
	187.049699	1369.254972	9.696000	-5.070000
	187.149704	1369.269311	9.716000	-4.780000
	187.249710	1369.288431	9.702000	-4.740000
	187.349716	1369.278872	9.680000	-4.980000
	187.449721	1369.282457	9.688000	-4.870000
	187.549727	1369.274093	9.698000	-4.970000
	187.699736	1369.281263	9.712000	-4.840000
	187.756739	1369.294407	9.676000	-4.790000
	187.899747	1369.294407	9.666000	-4.900000
	187.999753	1369.284848	9.678000	-4.980000
	188.099759	1369.274094	9.690000	-4.990000
	188.151762	1369.274094	9.690000	-4.990000
	188.300770	1369.295605	9.698000	-4.720000
	188.399776	1369.297994	9.684000	-4.880000
	188.499782	1369.288435	9.654000	-4.980000
	188.599787	1369.259760	9.706000	-5.140000
	188.699793	1369.271709	9.722000	-4.800000
	188.799798	1369.289634	9.674000	-4.750000
	188.899805	1369.275296	9.680000	-5.020000
	188.999810	1369.263347	9.710000	-5.000000
	189.099816	1369.269322	9.722000	-4.850000
	189.199821	1369.284857	9.698000	-4.770000
	189.249825	1369.284857	9.698000	-4.770000
	189.399833	1369.290831	9.670000	-4.850000
	189.499839	1369.260961	9.686000	-5.150000
	189.599844	1369.266936	9.720000	-4.850000
	189.699850	1369.293227	9.698000	-4.680000
	189.799856	1369.301591	9.684000	-4.830000
	189.899862	1369.283668	9.662000	-5.050000
	189.999867	1369.257382	9.688000	-5.120000
	190.099873	1369.265747	9.714000	-4.830000
	190.200879	1369.283672	9.676000	-4.750000
	190.299884	1369.283672	9.676000	-4.750000
	190.399890	1369.294427	9.668000	-4.810000
	190.499896	1369.265751	9.694000	-5.140000
	190.601902	1369.268141	9.710000	-4.880000
	190.699907	1369.295627	9.706000	-4.670000
	190.799913	1369.302796	9.676000	-4.840000
	190.899919	1369.282484	9.670000	-5.070000
	190.999925	1369.287264	9.688000	-4.860000
	191.099930	1369.296823	9.706000	-4.820000
	191.207936	1369.296823	9.706000	-4.820000
	191.299942	1369.296823	9.680000	-4.900000
	191.399947	1369.296823	9.678000	-4.900000
	191.499953	1369.271732	9.700000	-5.110000
	191.601959	1369.280097	9.716000	-4.830000
	191.699965	1369.307583	9.680000	-4.670000
	191.799970	1369.313558	9.670000	-4.850000
	191.899976	1369.283687	9.690000	-5.150000
	191.999982	1369.284882	9.706000	-4.890000
	192.102988	1369.309978	9.718000	-4.690000
	192.199993	1369.309978	9.718000	-4.690000
	192.299999	1369.319538	9.680000	-4.820000
	192.400004	1369.304004	9.676000	-5.030000
	192.500010	1369.290860	9.704000	-5.010000
	192.600016	1369.299225	9.710000	-4.830000
	192.700022	1369.301615	9.690000	-4.880000
	192.800027	1369.323126	9.660000	-4.720000
	192.900033	1369.308787	9.676000	-5.020000
	193.000039	1369.307592	9.700000	-4.910000
	193.107045	1369.315957	9.692000	-4.830000
	193.200050	1369.315957	9.692000	-4.830000
	193.300056	1369.339858	9.672000	-4.700000
	193.400062	1369.327909	9.678000	-5.000000
	193.500068	1369.302817	9.702000	-5.110000
	193.601073	1369.309987	9.718000	-4.840000
	193.701079	1369.319547	9.696000	-4.820000
	193.800085	1369.326716	9.656000	-4.840000
	193.900090	1369.302819	9.696000	-5.100000
	194.001096	1369.293260	9.726000	-4.980000
	194.100102	1369.298040	9.730000	-4.860000
	194.200108	1369.298040	9.730000	-4.860000
	194.300113	1369.299235	9.688000	-4.890000
	194.400119	1369.282507	9.660000	-5.040000
	194.500124	1369.266973	9.696000	-5.030000
	194.600131	1369.268168	9.710000	-4.890000
	194.700136	1369.296849	9.698000	-4.660000
	194.800142	1369.323141	9.694000	-4.680000
	194.900147	1369.319556	9.650000	-4.930000
	195.000153	1369.306412	9.676000	-5.010000
	195.100159	1369.296853	9.728000	-4.980000
	195.202165	1369.296853	9.708000	-4.900000
	195.300170	1369.323144	9.694000	-4.680000
	195.400176	1369.319559	9.662000	-4.930000
	195.500182	1369.294467	9.668000	-5.110000
	195.600188	1369.294467	9.668000	-5.110000
	195.700193	1369.275350	9.688000	-5.060000
	195.800199	1369.282519	9.706000	-4.840000
	195.900205	1369.286104	9.684000	-4.870000
	196.000210	1369.280130	9.686000	-4.950000
	196.125218	1369.280130	9.686000	-4.950000
	196.200222	1369.295664	9.702000	-4.770000
	196.300228	1369.301639	9.670000	-4.850000
	196.400233	1369.298055	9.674000	-4.930000
	196.500239	1369.286106	9.710000	-5.000000
	196.600245	1369.287301	9.716000	-4.890000
	196.700251	1369.305226	9.704000	-4.750000
	196.800256	1369.292082	9.678000	-5.010000
	196.900262	1369.262212	9.668000	-5.150000
	197.000268	1369.263407	9.688000	-4.890000
	197.100274	1369.280136	9.720000	-4.760000
	197.203279	1369.300452	9.708000	-4.730000
	197.300285	1369.311207	9.672000	-4.810000
	197.400290	1369.299258	9.656000	-5.000000
	197.500296	1369.280140	9.694000	-5.060000
	197.600302	1369.280140	9.694000	-5.060000
	197.700308	1369.282530	9.732000	-4.880000
	197.800313	1369.304040	9.714000	-4.720000
	197.900319	1369.321965	9.676000	-4.750000
	198.000325	1369.324355	9.668000	-4.880000
	198.100331	1369.314796	9.666000	-4.980000
	198.200336	1369.307626	9.690000	-4.960000
	198.300342	1369.305237	9.702000	-4.920000
	198.401348	1369.331528	9.712000	-4.680000
	198.500353	1369.338698	9.692000	-4.840000
	198.600359	1369.321969	9.680000	-5.040000
	198.700365	1369.301657	9.686000	-5.070000
	198.800371	1369.301657	9.722000	-4.900000
	198.900376	1369.301657	9.722000	-4.900000
	199.000382	1369.310021	9.706000	-4.830000
	199.100388	1369.319581	9.688000	-4.820000
	199.200394	1369.344678	9.660000	-4.690000
	199.300399	1369.345873	9.686000	-4.890000
	199.400405	1369.319586	9.686000	-5.120000
	199.500411	1369.302857	9.708000	-5.040000
	199.600417	1369.292103	9.730000	-4.990000
	199.700422	1369.313614	9.714000	-4.720000
	199.800428	1369.337515	9.696000	-4.700000
	199.900434	1369.329150	9.676000	-4.970000
	200.000439	1369.316006	9.658000	-5.010000
	200.100445	1369.296888	9.694000	-5.060000
	200.200451	1369.284940	9.720000	-5.000000
	200.300457	1369.294499	9.726000	-4.820000
	200.400462	1369.312425	9.690000	-4.750000
	200.500468	1369.330350	9.676000	-4.750000
	200.600474	1369.330350	9.676000	-4.750000
	200.700480	1369.332740	9.656000	-4.880000
	200.800485	1369.300479	9.700000	-5.170000
	200.900491	1369.288530	9.710000	-5.000000
	201.000496	1369.305261	9.694000	-4.760000
	201.100502	1369.323186	9.692000	-4.750000
	201.200508	1369.331551	9.664000	-4.830000
	201.300514	1369.324381	9.674000	-4.960000
	201.400519	1369.311237	9.676000	-5.010000
	201.500525	1369.290925	9.714000	-5.070000
	201.600531	1369.306460	9.698000	-4.770000
	201.700537	1369.325580	9.708000	-4.740000
	201.800542	1369.350677	9.686000	-4.690000
	201.900548	1369.349482	9.678000	-4.910000
	201.999554	1369.335143	9.650000	-5.020000
	202.099559	1369.319609	9.678000	-5.030000
	202.199565	1369.298101	9.696000	-5.080000
	202.299571	1369.298101	9.696000	-5.080000
	202.399577	1369.319612	9.706000	-4.720000
	202.499582	1369.343513	9.696000	-4.700000
	202.599588	1369.363830	9.682000	-4.730000
	202.699594	1369.345906	9.672000	-5.050000
	202.799599	1369.319619	9.668000	-5.120000
	202.899605	1369.305280	9.690000	-5.020000
	202.999611	1369.301695	9.708000	-4.930000
	203.099617	1369.319620	9.702000	-4.750000
	203.199622	1369.345912	9.678000	-4.680000
	203.299628	1369.353082	9.648000	-4.840000
	203.399634	1369.336353	9.674000	-5.040000
	203.499640	1369.319625	9.692000	-5.040000
	203.599645	1369.323210	9.722000	-4.870000
	203.699651	1369.335160	9.724000	-4.800000
	203.799656	1369.348305	9.696000	-4.790000
	203.899662	1369.348305	9.696000	-4.790000
	203.999668	1369.354280	9.664000	-4.850000
	204.099674	1369.343526	9.664000	-4.990000
	204.199679	1369.330381	9.676000	-5.010000
	204.299685	1369.323212	9.726000	-4.960000
	204.399691	1369.326797	9.702000	-4.870000
	204.499697	1369.355479	9.700000	-4.660000
	204.599702	1369.363844	9.678000	-4.830000
	204.699708	1369.355480	9.662000	-4.970000
	204.799714	1369.336361	9.672000	-5.060000
	204.899720	1369.327996	9.722000	-4.970000
	204.999725	1369.336361	9.720000	-4.830000
	205.099731	1369.353092	9.704000	-4.760000
	205.199737	1369.348312	9.654000	-4.940000
	205.299742	1369.330389	9.680000	-5.050000
	205.399748	1369.307686	9.716000	-5.090000
	205.499754	1369.307686	9.716000	-5.090000
	205.599760	1369.332782	9.708000	-4.690000
	205.699765	1369.355489	9.692000	-4.710000
	205.799771	1369.362659	9.676000	-4.840000
	205.899777	1369.357879	9.670000	-4.940000
	205.999783	1369.341150	9.680000	-5.040000
	206.099788	1369.336370	9.716000	-4.940000
	206.199794	1369.343540	9.704000	-4.840000
	206.299799	1369.359076	9.700000	-4.770000
	206.399806	1369.351906	9.686000	-4.960000
	206.499811	1369.341152	9.664000	-4.990000
	206.599817	1369.343542	9.700000	-4.880000
	206.699822	1369.333982	9.716000	-4.980000
	206.799828	1369.335177	9.694000	-4.890000
	206.899834	1369.345932	9.678000	-4.810000
	206.999840	1369.329204	9.658000	-5.040000
	207.099845	1369.329204	9.658000	-5.040000
	207.199851	1369.322034	9.706000	-4.960000
	207.299857	1369.322034	9.712000	-4.900000
	207.399863	1369.341155	9.692000	-4.740000
	207.499868	1369.353105	9.698000	-4.800000
	207.599874	1369.339961	9.664000	-5.010000
	207.699880	1369.314869	9.702000	-5.110000
	207.799885	1369.319648	9.728000	-4.860000
	207.899891	1369.328013	9.696000	-4.830000
	207.999897	1369.357891	9.664000	-4.650000
	208.099903	1369.341162	9.678000	-5.040000
	208.199908	1369.314875	9.698000	-5.120000
	208.299914	1369.314875	9.698000	-4.900000
	208.399920	1369.342362	9.702000	-4.670000
	208.499926	1369.361483	9.690000	-4.740000
	208.599931	1369.367458	9.660000	-4.850000
	208.699937	1369.344755	9.684000	-5.090000
	208.799942	1369.344755	9.684000	-5.090000
	208.899949	1369.339975	9.730000	-4.940000
	208.999954	1369.354315	9.710000	-4.780000
	209.099960	1369.368656	9.688000	-4.780000
	209.199965	1369.368656	9.668000	-4.900000
	209.299971	1369.347148	9.658000	-5.080000
	209.399977	1369.338783	9.702000	-4.970000
	209.499983	1369.343563	9.716000	-4.860000
	209.599988	1369.355513	9.692000	-4.800000
	209.699994	1369.354318	9.650000	-4.910000
	209.800000	1369.330421	9.694000	-5.100000
	209.900006	1369.329226	9.684000	-4.910000
	210.000011	1369.332811	9.710000	-4.870000
	210.100017	1369.342371	9.698000	-4.820000
	210.200023	1369.367468	9.690000	-4.690000
	210.300028	1369.349544	9.652000	-5.050000
	210.400034	1369.341179	9.684000	-4.970000
	210.550043	1369.341179	9.684000	-4.970000
	210.650048	1369.329230	9.704000	-5.000000
	210.750054	1369.334010	9.718000	-4.860000
	210.850060	1369.350740	9.686000	-4.760000
	210.950066	1369.351935	9.674000	-4.890000
	211.050071	1369.350740	9.658000	-4.910000
	211.150077	1369.334012	9.706000	-5.040000
	211.250083	1369.335207	9.718000	-4.890000
	211.350089	1369.344767	9.708000	-4.820000
	211.450094	1369.356717	9.674000	-4.800000
	211.550100	1369.351937	9.674000	-4.940000
	211.650105	1369.332819	9.684000	-5.060000
	211.750112	1369.331624	9.714000	-4.910000
	211.850117	1369.332819	9.708000	-4.890000
	211.950123	1369.345964	9.686000	-4.790000
	212.050128	1369.362695	9.676000	-4.760000
	212.150134	1369.362695	9.676000	-4.760000
	212.250140	1369.354330	9.660000	-4.970000
	212.350146	1369.342381	9.698000	-5.000000
	212.450151	1369.338796	9.688000	-4.930000
	212.550157	1369.369869	9.714000	-4.640000
	212.650163	1369.375844	9.704000	-4.850000
	212.750169	1369.374649	9.662000	-4.910000
	212.850174	1369.372259	9.674000	-4.920000
	212.950180	1369.349556	9.706000	-5.090000
	213.050186	1369.344776	9.724000	-4.940000
	213.150191	1369.366287	9.704000	-4.720000
	213.250197	1369.381823	9.686000	-4.770000
	213.350203	1369.378238	9.664000	-4.930000
	213.450209	1369.367483	9.690000	-4.990000
	213.550214	1369.350754	9.706000	-5.040000
	213.650220	1369.356730	9.698000	-4.850000
	213.750226	1369.356730	9.698000	-4.850000
	213.850232	1369.369875	9.724000	-4.790000
	213.950237	1369.377045	9.678000	-4.840000
	214.050243	1369.378240	9.672000	-4.890000
	214.150249	1369.347173	9.710000	-5.160000
	214.250254	1369.347173	9.684000	-4.900000
	214.350260	1369.354343	9.718000	-4.840000
	214.450266	1369.383026	9.692000	-4.660000
	214.550272	1369.379441	9.680000	-4.930000
	214.650277	1369.361517	9.654000	-5.050000
	214.750283	1369.340009	9.700000	-5.080000
	214.850289	1369.332839	9.712000	-4.960000
	214.950294	1369.343595	9.706000	-4.810000
	215.050300	1369.355545	9.692000	-4.800000
	215.150306	1369.360325	9.636000	-4.860000
	215.250311	1369.347181	9.682000	-5.010000
	215.350317	1369.324478	9.690000	-5.090000
	215.450323	1369.324478	9.690000	-5.090000
	215.550329	1369.336428	9.722000	-4.800000
	215.650334	1369.350768	9.692000	-4.780000
	215.750340	1369.368694	9.666000	-4.750000
	215.850346	1369.361524	9.658000	-4.960000
	215.950352	1369.338821	9.686000	-5.090000
	216.050357	1369.331652	9.716000	-4.960000
	216.150363	1369.348382	9.708000	-4.760000
	216.250369	1369.366308	9.684000	-4.750000
	216.350375	1369.369893	9.656000	-4.870000
	216.450380	1369.348385	9.658000	-5.080000
	216.550386	1369.348385	9.694000	-4.900000
	216.650392	1369.343605	9.694000	-4.940000
	216.750397	1369.365116	9.712000	-4.720000
	216.850403	1369.385433	9.676000	-4.730000
	216.952409	1369.374678	9.668000	-4.990000
	217.050415	1369.374678	9.668000	-4.990000
	217.150420	1369.348391	9.682000	-5.120000
	217.250426	1369.341221	9.668000	-4.960000
	217.350432	1369.349586	9.702000	-4.830000
	217.450438	1369.362731	9.734000	-4.790000
	217.550443	1369.367511	9.676000	-4.860000
	217.650449	1369.362732	9.662000	-4.940000
	217.750454	1369.350782	9.676000	-5.000000
	217.850461	1369.348392	9.700000	-4.920000
	217.950466	1369.349587	9.696000	-4.890000
	218.050472	1369.363928	9.686000	-4.780000
	218.150477	1369.373488	9.682000	-4.820000
	218.250483	1369.355564	9.668000	-5.050000
	218.350489	1369.350784	9.700000	-4.940000
	218.450495	1369.351979	9.716000	-4.890000
	218.553501	1369.371100	9.700000	-4.740000
	218.650506	1369.371100	9.700000	-4.740000
	218.750512	1369.386636	9.698000	-4.770000
	218.850517	1369.374687	9.668000	-5.000000
	218.950523	1369.357958	9.682000	-5.040000
	219.050529	1369.350788	9.688000	-4.960000
	219.150535	1369.350788	9.700000	-4.900000
	219.250540	1369.362738	9.700000	-4.800000
	219.350546	1369.384250	9.708000	-4.720000
	219.449552	1369.385445	9.660000	-4.890000
	219.549558	1369.380665	9.658000	-4.940000
	219.649563	1369.371105	9.690000	-4.980000
	219.749569	1369.371105	9.704000	-4.900000
	219.849575	1369.391422	9.692000	-4.730000
	219.949580	1369.402177	9.678000	-4.810000
	220.049586	1369.400982	9.666000	-4.910000
	220.149592	1369.380668	9.668000	-5.070000
	220.249598	1369.380668	9.668000	-5.070000
	220.349603	1369.367524	9.702000	-5.010000
	220.449609	1369.371109	9.720000	-4.870000
	220.549615	1369.391425	9.682000	-4.730000
	220.649621	1369.408157	9.662000	-4.760000
	220.749626	1369.386648	9.656000	-5.080000
	220.849632	1369.363944	9.696000	-5.090000
	220.949637	1369.361554	9.722000	-4.920000
	221.049644	1369.369920	9.716000	-4.830000
	221.149649	1369.378285	9.698000	-4.830000
	221.199652	1369.392626	9.680000	-4.780000
	221.349660	1369.377091	9.662000	-5.030000
	221.449666	1369.350803	9.674000	-5.120000
	221.549672	1369.349608	9.712000	-4.910000
	221.649678	1369.355584	9.722000	-4.850000
	221.749683	1369.379485	9.708000	-4.700000
	221.849689	1369.398607	9.662000	-4.740000
	221.949695	1369.386657	9.656000	-5.000000
	222.049700	1369.386657	9.656000	-5.000000
	222.149706	1369.367538	9.676000	-5.060000
	222.249712	1369.357979	9.724000	-4.980000
	222.349718	1369.368734	9.702000	-4.810000
	222.449723	1369.396222	9.678000	-4.670000
	222.549729	1369.397417	9.684000	-4.890000
	222.649735	1369.380688	9.678000	-5.040000
	222.749741	1369.369933	9.706000	-4.990000
	222.849746	1369.380688	9.720000	-4.810000
	222.949752	1369.392639	9.720000	-4.800000
	223.049757	1369.396224	9.678000	-4.870000
	223.149764	1369.397419	9.662000	-4.890000
	223.249769	1369.368741	9.682000	-5.140000
	223.349775	1369.348428	9.736000	-5.070000
	223.449780	1369.369939	9.714000	-4.720000
	223.550786	1369.395037	9.694000	-4.690000
	223.649792	1369.395037	9.694000	-4.690000
	223.749798	1369.399817	9.658000	-4.860000
	223.849803	1369.381893	9.668000	-5.050000
	223.949809	1369.367553	9.694000	-5.020000
	224.049815	1369.371138	9.720000	-4.870000
	224.149821	1369.374723	9.704000	-4.870000
	224.249826	1369.392650	9.684000	-4.750000
	224.349832	1369.405795	9.676000	-4.790000
	224.449838	1369.390261	9.682000	-5.030000
	224.549843	1369.367557	9.706000	-5.090000
	224.649849	1369.375923	9.722000	-4.830000
	224.749855	1369.391459	9.692000	-4.770000
	224.849861	1369.387874	9.666000	-4.930000
	224.949866	1369.378314	9.668000	-4.980000
	225.049872	1369.368754	9.680000	-4.980000
	225.149878	1369.368754	9.680000	-4.980000
	225.249884	1369.374729	9.710000	-4.850000
	225.349889	1369.398631	9.696000	-4.700000
	225.449895	1369.401021	9.680000	-4.880000
	225.549901	1369.392657	9.660000	-4.970000
	225.649906	1369.374732	9.674000	-5.050000
	225.749912	1369.368757	9.686000	-4.950000
	225.849918	1369.365172	9.716000	-4.930000
	225.949924	1369.377123	9.684000	-4.800000
	226.049929	1369.399830	9.714000	-4.710000
	226.149935	1369.399830	9.666000	-4.900000
	226.249941	1369.391465	9.662000	-4.970000
	226.349946	1369.372346	9.674000	-5.060000
	226.449952	1369.369956	9.716000	-4.920000
	226.549958	1369.387882	9.738000	-4.750000
	226.649963	1369.420152	9.696000	-4.630000
	226.749969	1369.422542	9.692000	-4.880000
	226.849975	1369.422542	9.692000	-4.880000
	226.949981	1369.410592	9.674000	-5.000000
	227.049986	1369.390278	9.670000	-5.070000
	227.149992	1369.381913	9.706000	-4.970000
	227.249998	1369.386693	9.712000	-4.860000
	227.350004	1369.402229	9.692000	-4.770000
	227.450009	1369.410595	9.696000	-4.830000
	227.550015	1369.414180	9.672000	-4.870000
	227.650021	1369.378333	9.688000	-5.200000
	227.750027	1369.368773	9.698000	-4.980000
	227.850032	1369.356824	9.712000	-5.000000
	227.950038	1369.372360	9.712000	-4.770000
	228.050044	1369.389091	9.686000	-4.760000
	228.150049	1369.397456	9.678000	-4.830000
	228.250055	1369.375947	9.660000	-5.080000
	228.350061	1369.348465	9.678000	-5.130000
	228.450067	1369.348465	9.678000	-5.130000
	228.550072	1369.348465	9.726000	-4.900000
	228.650078	1369.352050	9.722000	-4.870000
	228.750084	1369.368781	9.718000	-4.760000
	228.850090	1369.387902	9.678000	-4.740000
	228.950095	1369.379537	9.668000	-4.970000
	229.050101	1369.367587	9.680000	-5.000000
	229.150106	1369.368782	9.708000	-4.890000
	229.250112	1369.377148	9.718000	-4.830000
	229.350118	1369.396269	9.722000	-4.740000
	229.450124	1369.416586	9.690000	-4.730000
	229.550129	1369.417781	9.676000	-4.890000
	229.650135	1369.398662	9.658000	-5.060000
	229.750141	1369.375958	9.662000	-5.090000
	229.850147	1369.362814	9.702000	-5.010000
	229.950152	1369.365204	9.714000	-4.880000
	230.050158	1369.374764	9.714000	-4.820000
	230.150164	1369.374764	9.714000	-4.820000
	230.250169	1369.392690	9.700000	-4.750000
	230.350175	1369.408226	9.670000	-4.770000
	230.450181	1369.407031	9.658000	-4.910000
	230.550187	1369.395082	9.668000	-5.000000
	230.650192	1369.383132	9.700000	-5.000000
	230.750198	1369.386717	9.716000	-4.870000
	230.850204	1369.397473	9.718000	-4.810000
	230.950210	1369.413009	9.678000	-4.770000
	231.050215	1369.420179	9.664000	-4.840000
	231.150221	1369.403450	9.674000	-5.040000
	231.250226	1369.384330	9.682000	-5.060000
	231.353232	1369.371186	9.710000	-5.010000
	231.450238	1369.383136	9.714000	-4.800000
	231.550244	1369.399868	9.692000	-4.760000
	231.650249	1369.415404	9.690000	-4.770000
	231.750255	1369.415404	9.658000	-4.900000
	231.850261	1369.407039	9.684000	-4.970000
	231.950267	1369.387920	9.698000	-5.060000
	232.050272	1369.387920	9.698000	-5.060000
	232.150278	1369.384335	9.706000	-4.930000
	232.250284	1369.407042	9.702000	-4.710000
	232.350290	1369.413017	9.698000	-4.850000
	232.450295	1369.420188	9.684000	-4.840000
	232.550301	1369.417797	9.644000	-4.920000
	232.650307	1369.396288	9.686000	-5.080000
	232.750312	1369.379559	9.702000	-5.040000
	232.850318	1369.390314	9.716000	-4.810000
	232.950324	1369.420193	9.704000	-4.650000
	233.050330	1369.424974	9.680000	-4.860000
	233.150335	1369.414219	9.670000	-4.990000
	233.250341	1369.402269	9.648000	-5.000000
	233.350347	1369.384344	9.686000	-5.050000
	233.450353	1369.385539	9.728000	-4.890000
	233.550358	1369.390320	9.708000	-4.860000
	233.650364	1369.390320	9.708000	-4.860000
	233.750370	1369.396295	9.682000	-4.850000
	233.850375	1369.417807	9.662000	-4.720000
	233.950381	1369.410637	9.664000	-4.960000
	234.050387	1369.389128	9.664000	-5.080000
	234.152393	1369.372399	9.706000	-5.040000
	234.250398	1369.372399	9.692000	-4.900000
	234.350404	1369.402277	9.712000	-4.650000
	234.450410	1369.430961	9.696000	-4.660000
	234.550416	1369.444107	9.666000	-4.790000
	234.650421	1369.436937	9.672000	-4.960000
	234.750427	1369.419012	9.666000	-5.050000
	234.850432	1369.410647	9.702000	-4.970000
	234.950438	1369.416623	9.712000	-4.850000
	235.050444	1369.432159	9.702000	-4.770000
	235.150450	1369.435744	9.674000	-4.870000
	235.250455	1369.436939	9.648000	-4.890000
	235.352461	1369.436939	9.648000	-4.890000
	235.450467	1369.428574	9.652000	-4.970000
	235.550473	1369.422599	9.688000	-4.950000
	235.650478	1369.428574	9.712000	-4.850000
	235.752484	1369.429769	9.688000	-4.890000
	235.850490	1369.435745	9.672000	-4.850000
	235.952496	1369.440525	9.660000	-4.860000
	236.050501	1369.433355	9.668000	-4.960000
	236.150507	1369.405871	9.700000	-5.130000
	236.250513	1369.393921	9.712000	-5.000000
	236.350518	1369.413043	9.720000	-4.740000
	236.450524	1369.426189	9.702000	-4.790000
	236.550530	1369.440531	9.674000	-4.780000
	236.650536	1369.440531	9.670000	-4.900000
	236.750541	1369.414242	9.680000	-5.120000
	236.851547	1369.407072	9.706000	-4.960000
	236.949553	1369.407072	9.706000	-4.960000
	237.049558	1369.410657	9.708000	-4.870000
	237.149564	1369.427388	9.720000	-4.760000
	237.250570	1369.434559	9.678000	-4.840000
	237.349576	1369.428584	9.670000	-4.950000
	237.454582	1369.414244	9.690000	-5.020000
	237.549587	1369.415439	9.702000	-4.890000
	237.649593	1369.423804	9.720000	-4.830000
	237.749599	1369.430975	9.674000	-4.840000
	237.849604	1369.426195	9.676000	-4.940000
	237.949610	1369.441731	9.678000	-4.770000
	238.049615	1369.420222	9.666000	-5.080000
	238.149621	1369.417832	9.712000	-4.920000
	238.249627	1369.428587	9.728000	-4.810000
	238.349633	1369.451295	9.704000	-4.710000
	238.449638	1369.457271	9.674000	-4.850000
	238.549644	1369.453686	9.682000	-4.930000
	238.649650	1369.439346	9.670000	-5.020000
	238.749656	1369.439346	9.670000	-5.020000
	238.849661	1369.423811	9.690000	-5.030000
	238.949667	1369.408276	9.722000	-5.030000
	239.049673	1369.423812	9.720000	-4.770000
	239.149679	1369.456083	9.680000	-4.630000
	239.249684	1369.435768	9.676000	-5.070000
	239.349690	1369.414258	9.668000	-5.080000
	239.449696	1369.393944	9.712000	-5.070000
	239.549701	1369.404700	9.716000	-4.810000
	239.649707	1369.435774	9.698000	-4.640000
	239.751713	1369.444140	9.688000	-4.830000
	239.849719	1369.439360	9.664000	-4.940000
	239.949724	1369.422630	9.674000	-5.040000
	240.049730	1369.397536	9.682000	-5.110000
	240.152736	1369.379612	9.708000	-5.050000
	240.249742	1369.379612	9.698000	-4.900000
	240.349747	1369.379612	9.698000	-4.900000
	240.449753	1369.393953	9.680000	-4.780000
	240.549758	1369.416660	9.656000	-4.710000
	240.649764	1369.417855	9.678000	-4.890000
	240.749770	1369.408295	9.698000	-4.980000
	240.849776	1369.403515	9.714000	-4.940000
	240.949781	1369.432199	9.696000	-4.660000
	241.049787	1369.445345	9.692000	-4.790000
	241.149793	1369.456101	9.670000	-4.810000
	241.249799	1369.457296	9.662000	-4.890000
	241.349804	1369.428617	9.678000	-5.140000
	241.449810	1369.416667	9.720000	-5.000000
	241.549816	1369.435789	9.696000	-4.740000
	241.650822	1369.446545	9.678000	-4.810000
	241.749827	1369.447740	9.654000	-4.890000
	241.849833	1369.447740	9.654000	-4.890000
	241.949839	1369.441765	9.678000	-4.950000
	242.049844	1369.415476	9.710000	-5.120000
	242.149850	1369.419061	9.712000	-4.870000
	242.249856	1369.442964	9.720000	-4.700000
	242.349862	1369.464477	9.690000	-4.720000
	242.449867	1369.474038	9.672000	-4.820000
	242.549873	1369.445359	9.674000	-5.140000
	242.649879	1369.425044	9.686000	-5.070000
	242.749885	1369.422654	9.728000	-4.920000
	242.849890	1369.453729	9.712000	-4.640000
	242.949896	1369.464485	9.668000	-4.810000
	243.049901	1369.447755	9.662000	-5.040000
	243.149907	1369.433415	9.662000	-5.020000
	243.249913	1369.419075	9.664000	-5.020000
	243.349919	1369.422660	9.706000	-4.870000
	243.449924	1369.417880	9.710000	-4.940000
	243.549930	1369.417880	9.710000	-4.940000
	243.649936	1369.437002	9.704000	-4.740000
	243.749942	1369.445368	9.670000	-4.830000
	243.849947	1369.438198	9.668000	-4.960000
	243.949953	1369.414298	9.700000	-5.100000
	244.049959	1369.403543	9.720000	-4.990000
	244.149964	1369.408324	9.708000	-4.860000
	244.249970	1369.425055	9.682000	-4.760000
	244.349976	1369.421470	9.668000	-4.930000
	244.449982	1369.408325	9.664000	-5.010000
	244.549987	1369.395180	9.680000	-5.010000
	244.649993	1369.398766	9.718000	-4.870000
	244.749999	1369.415497	9.730000	-4.760000
	244.850005	1369.431033	9.676000	-4.770000
	244.950010	1369.441789	9.666000	-4.810000
	245.050016	1369.421475	9.670000	-5.070000
	245.150022	1369.421475	9.670000	-5.070000
	245.250028	1369.411915	9.686000	-4.980000
	245.350033	1369.425061	9.724000	-4.790000
	245.450039	1369.441792	9.714000	-4.760000
	245.550045	1369.462110	9.676000	-4.730000
	245.650050	1369.450160	9.676000	-5.000000
	245.750056	1369.437015	9.686000	-5.010000
	245.850062	1369.411921	9.696000	-5.110000
	245.950068	1369.421481	9.708000	-4.820000
	246.050073	1369.439408	9.692000	-4.750000
	246.150079	1369.454945	9.686000	-4.770000
	246.250085	1369.453750	9.656000	-4.910000
	246.350091	1369.432240	9.676000	-5.080000
	246.450096	1369.419095	9.714000	-5.010000
	246.550102	1369.433436	9.722000	-4.780000
	246.650107	1369.457340	9.724000	-4.700000
	246.750113	1369.457340	9.724000	-4.700000
	246.900122	1369.477658	9.654000	-4.900000
	247.000128	1369.454953	9.672000	-5.090000
	247.100133	1369.446587	9.688000	-4.970000
	247.200139	1369.450173	9.714000	-4.870000
	247.300145	1369.450173	9.714000	-4.870000
	247.400150	1369.463319	9.700000	-4.790000
	247.500156	1369.488418	9.672000	-4.690000
	247.600162	1369.490808	9.682000	-4.880000
	247.700168	1369.466908	9.672000	-5.100000
	247.800173	1369.441814	9.692000	-5.110000
	247.900179	1369.440618	9.728000	-4.910000
	248.000185	1369.468108	9.694000	-4.670000
	248.100191	1369.471693	9.674000	-4.870000
	248.200196	1369.459743	9.670000	-5.000000
	248.300202	1369.447792	9.678000	-5.000000
	248.400208	1369.441817	9.698000	-4.950000
	248.500214	1369.444207	9.716000	-4.880000
	248.600219	1369.456159	9.694000	-4.800000
	248.700225	1369.465720	9.672000	-4.820000
	248.800231	1369.451379	9.672000	-5.020000
	248.900236	1369.451379	9.672000	-5.020000
	249.000242	1369.429870	9.668000	-5.080000
	249.100248	1369.417920	9.702000	-5.000000
	249.200253	1369.443018	9.726000	-4.690000
	249.300259	1369.471703	9.702000	-4.660000
	249.400265	1369.470508	9.678000	-4.910000
	249.500270	1369.451387	9.676000	-5.060000
	249.600276	1369.435852	9.688000	-5.030000
	249.700282	1369.417928	9.702000	-5.050000
	249.800288	1369.426293	9.726000	-4.830000
	249.900293	1369.446611	9.686000	-4.730000
	250.000299	1369.469319	9.666000	-4.710000
	250.100305	1369.469319	9.664000	-4.900000
	250.200311	1369.447809	9.690000	-5.080000
	250.300316	1369.449004	9.716000	-4.890000
	250.400322	1369.459760	9.702000	-4.810000
	250.500328	1369.481273	9.708000	-4.720000
	250.600334	1369.481273	9.708000	-4.720000
	250.700339	1369.480078	9.666000	-4.910000
	250.800345	1369.465738	9.656000	-5.020000
	250.900351	1369.443033	9.688000	-5.090000
	251.000356	1369.432278	9.694000	-4.990000
	251.100362	1369.445424	9.718000	-4.790000
	251.200368	1369.449009	9.700000	-4.870000
	251.300374	1369.464546	9.680000	-4.770000
	251.400379	1369.465741	9.648000	-4.890000
	251.500385	1369.450206	9.664000	-5.030000
	251.600391	1369.438256	9.686000	-5.000000
	251.700397	1369.427500	9.692000	-4.990000
	251.800402	1369.434671	9.702000	-4.840000
	251.900408	1369.457379	9.692000	-4.710000
	252.000413	1369.457379	9.682000	-4.900000
	252.100420	1369.457379	9.670000	-4.900000
	252.200425	1369.435869	9.682000	-5.080000
	252.300431	1369.435869	9.682000	-5.080000
	252.400436	1369.433479	9.710000	-4.920000
	252.500442	1369.435869	9.714000	-4.880000
	252.600448	1369.460968	9.694000	-4.690000
	252.700454	1369.470529	9.664000	-4.820000
	252.800459	1369.477700	9.662000	-4.840000
	252.900465	1369.465749	9.666000	-5.000000
	253.000471	1369.447824	9.690000	-5.050000
	253.100476	1369.440654	9.726000	-4.960000
	253.200482	1369.443044	9.712000	-4.880000
	253.300488	1369.457386	9.700000	-4.780000
	253.400494	1369.470532	9.678000	-4.790000
	253.500499	1369.472922	9.660000	-4.880000
	253.600505	1369.464557	9.670000	-4.970000
	253.702511	1369.441852	9.692000	-5.090000
	253.800517	1369.447828	9.702000	-4.850000
	253.900522	1369.462169	9.692000	-4.780000
	254.000528	1369.462169	9.692000	-4.780000
	254.100533	1369.486073	9.690000	-4.700000
	254.200540	1369.481293	9.696000	-4.940000
	254.300545	1369.468147	9.658000	-5.010000
	254.399551	1369.435883	9.674000	-5.170000
	254.499557	1369.435883	9.694000	-4.900000
	254.599562	1369.449030	9.720000	-4.790000
	254.699568	1369.468152	9.684000	-4.740000
	254.799574	1369.478908	9.688000	-4.810000
	254.899580	1369.477713	9.662000	-4.910000
	254.999585	1369.452618	9.688000	-5.110000
	255.099591	1369.445448	9.700000	-4.960000
	255.199596	1369.451424	9.704000	-4.850000
	255.299603	1369.468156	9.692000	-4.760000
	255.399608	1369.475326	9.678000	-4.840000
	255.499614	1369.488473	9.676000	-4.790000
	255.599619	1369.480108	9.664000	-4.970000
	255.699625	1369.480108	9.664000	-4.970000
	255.799631	1369.456208	9.706000	-5.100000
	255.899637	1369.468159	9.730000	-4.800000
	255.999642	1369.475330	9.688000	-4.840000
	256.099648	1369.486086	9.698000	-4.810000
	256.199654	1369.489671	9.672000	-4.870000
	256.299660	1369.489671	9.662000	-4.900000
	256.399665	1369.478916	9.688000	-4.990000
	256.499671	1369.465770	9.726000	-5.010000
	256.599677	1369.476527	9.710000	-4.810000
	256.699682	1369.498040	9.706000	-4.720000
	256.799688	1369.488479	9.672000	-4.980000
	256.899694	1369.471749	9.664000	-5.040000
	256.999700	1369.450239	9.688000	-5.080000
	257.099705	1369.440679	9.704000	-4.980000
	257.199711	1369.453825	9.710000	-4.790000
	257.299716	1369.453825	9.710000	-4.790000
	257.399723	1369.468167	9.702000	-4.780000
	257.499728	1369.463386	9.676000	-4.940000
	257.599734	1369.466972	9.658000	-4.870000
	257.699739	1369.445462	9.666000	-5.080000
	257.799745	1369.427537	9.702000	-5.050000
	257.899751	1369.419172	9.718000	-4.970000
	257.999757	1369.452637	9.718000	-4.620000
	258.099762	1369.466979	9.686000	-4.780000
	258.199768	1369.461004	9.666000	-4.950000
	258.301774	1369.449053	9.660000	-5.000000
	258.399780	1369.429934	9.712000	-5.060000
	258.499785	1369.427544	9.738000	-4.920000
	258.599791	1369.446666	9.702000	-4.740000
	258.699797	1369.464593	9.686000	-4.750000
	258.799802	1369.457423	9.680000	-4.960000
	258.899808	1369.446667	9.674000	-4.990000
	258.999814	1369.446667	9.674000	-4.990000
	259.099820	1369.432327	9.684000	-5.020000
	259.199825	1369.439498	9.712000	-4.840000
	259.299831	1369.446668	9.710000	-4.840000
	259.399837	1369.461010	9.694000	-4.780000
	259.499843	1369.480133	9.654000	-4.740000
	259.599848	1369.478938	9.662000	-4.910000
	259.699854	1369.461012	9.686000	-5.050000
	259.799860	1369.459817	9.680000	-4.910000
	259.899866	1369.459817	9.726000	-4.900000
	259.999871	1369.472964	9.702000	-4.790000
	260.099877	1369.470574	9.682000	-4.920000
	260.200882	1369.477744	9.684000	-4.840000
	260.299888	1369.461014	9.664000	-5.040000
	260.400894	1369.452649	9.686000	-4.970000
	260.499900	1369.451454	9.708000	-4.910000
	260.599905	1369.451454	9.708000	-4.910000
	260.699911	1369.468186	9.708000	-4.760000
	260.799917	1369.484918	9.676000	-4.760000
	260.899922	1369.486113	9.656000	-4.890000
	260.999928	1369.474162	9.680000	-5.000000
	261.099934	1369.453847	9.700000	-5.070000
	261.199940	1369.451457	9.694000	-4.920000
	261.299945	1369.455042	9.704000	-4.870000
	261.399951	1369.470579	9.686000	-4.770000
	261.499957	1369.498069	9.674000	-4.670000
	261.599963	1369.487314	9.670000	-4.990000
	261.702969	1369.472973	9.720000	-5.020000
	261.799974	1369.472973	9.720000	-5.020000
	261.899980	1369.456243	9.702000	-5.040000
	261.999986	1369.461023	9.718000	-4.860000
	262.099991	1369.486122	9.688000	-4.690000
	262.199997	1369.498074	9.676000	-4.800000
	262.300003	1369.487318	9.670000	-4.990000
	262.400008	1369.465808	9.686000	-5.080000
	262.500014	1369.463418	9.686000	-4.920000
	262.600020	1369.459833	9.722000	-4.930000
	262.704026	1369.455053	9.722000	-4.940000
	262.800031	1369.475370	9.698000	-4.730000
	262.900037	1369.489712	9.666000	-4.780000
	263.000043	1369.487322	9.678000	-4.920000
	263.100049	1369.474177	9.670000	-5.010000
	263.200054	1369.450277	9.690000	-5.100000
	263.302060	1369.458642	9.704000	-4.830000
	263.400065	1369.458642	9.704000	-4.830000
	263.500072	1369.470594	9.700000	-4.800000
	263.600077	1369.496888	9.696000	-4.680000
	263.700083	1369.501669	9.674000	-4.860000
	263.800088	1369.492108	9.650000	-4.980000
	263.900094	1369.468208	9.656000	-5.100000
	264.000100	1369.461038	9.682000	-4.960000
	264.100106	1369.453868	9.706000	-4.960000
	264.250114	1369.446697	9.704000	-4.960000
	264.350120	1369.463429	9.708000	-4.760000
	264.450126	1369.478966	9.690000	-4.770000
	264.550131	1369.483747	9.674000	-4.860000
	264.650137	1369.483747	9.654000	-4.900000
	264.750143	1369.474186	9.668000	-4.980000
	264.850149	1369.452676	9.704000	-5.080000
	264.950154	1369.444311	9.702000	-4.970000
	265.000157	1369.459848	9.712000	-4.770000
	265.150166	1369.459848	9.712000	-4.770000
	265.250171	1369.489728	9.686000	-4.650000
	265.350177	1369.512437	9.684000	-4.710000
	265.450183	1369.505267	9.656000	-4.960000
	265.550189	1369.498096	9.668000	-4.960000
	265.650194	1369.490926	9.678000	-4.960000
	265.750200	1369.498096	9.720000	-4.840000
	265.850206	1369.524391	9.684000	-4.680000
	265.950212	1369.538734	9.694000	-4.780000
	266.051217	1369.544710	9.678000	-4.850000
	266.150223	1369.548295	9.674000	-4.870000
	266.250228	1369.539929	9.670000	-4.970000
	266.350235	1369.508859	9.656000	-5.160000
	266.450240	1369.508859	9.656000	-5.160000
	266.550246	1369.489738	9.694000	-5.060000
	266.650251	1369.481373	9.700000	-4.970000
	266.750257	1369.506472	9.716000	-4.690000
	266.850263	1369.530377	9.682000	-4.700000
	266.950269	1369.547110	9.682000	-4.760000
	267.053275	1369.548305	9.656000	-4.890000
	267.150280	1369.541134	9.674000	-4.960000
	267.250286	1369.525598	9.680000	-5.030000
	267.350292	1369.510062	9.700000	-5.030000
	267.450297	1369.500501	9.702000	-4.980000
	267.550303	1369.500501	9.714000	-4.900000
	267.650309	1369.512453	9.710000	-4.800000
	267.750314	1369.512453	9.710000	-4.800000
	267.850320	1369.535163	9.694000	-4.710000
	267.950326	1369.533967	9.660000	-4.910000
	268.050332	1369.520821	9.658000	-5.010000
	268.150337	1369.517236	9.678000	-4.930000
	268.250343	1369.505285	9.686000	-5.000000
	268.350348	1369.499310	9.702000	-4.950000
	268.450355	1369.500505	9.712000	-4.890000
	268.550360	1369.502895	9.704000	-4.880000
	268.650366	1369.519628	9.702000	-4.760000
	268.750371	1369.522018	9.674000	-4.880000
	268.852377	1369.529189	9.668000	-4.840000
	268.952383	1369.500509	9.654000	-5.140000
	269.051389	1369.488558	9.658000	-5.000000
	269.150394	1369.477802	9.676000	-4.990000
	269.252400	1369.477802	9.676000	-4.990000
	269.350406	1369.489754	9.708000	-4.800000
	269.450412	1369.494534	9.722000	-4.860000
	269.550417	1369.512462	9.682000	-4.750000
	269.650423	1369.518438	9.662000	-4.850000
	269.750429	1369.506487	9.654000	-5.000000
	269.854435	1369.511268	9.668000	-4.860000
	269.950440	1369.492147	9.676000	-5.060000
	270.050446	1369.483782	9.716000	-4.970000
	270.150452	1369.470636	9.702000	-5.010000
	270.250457	1369.482588	9.712000	-4.800000
	270.350463	1369.500515	9.712000	-4.750000
	270.450469	1369.522029	9.670000	-4.720000
	270.550475	1369.536371	9.668000	-4.780000
	270.650480	1369.538762	9.666000	-4.880000
	270.750486	1369.538762	9.666000	-4.880000
	270.851492	1370.822554	9.818000	5.670000
	270.950498	1370.652755	9.504000	-6.320000
	271.050503	1370.506884	9.520000	-6.120000
	271.150509	1370.381348	9.522000	-5.950000
	271.250515	1370.282118	9.534000	-5.730000
	271.350520	1370.179311	9.544000	-5.760000
	271.450526	1370.088462	9.534000	-5.660000
	271.550532	1370.020326	9.560000	-5.470000
	271.650537	1369.958169	9.568000	-5.420000
	271.753543	1369.925893	9.576000	-5.170000
	271.850549	1369.916330	9.574000	-4.980000
	271.949554	1369.904375	9.582000	-5.000000
	272.049560	1369.904375	9.582000	-5.000000
	272.149566	1369.911548	9.564000	-4.840000
	272.249572	1369.911548	9.576000	-4.900000
	272.349577	1369.918721	9.550000	-4.840000
	272.449583	1369.903181	9.512000	-5.030000
	272.549589	1369.876883	9.520000	-5.120000
	272.649595	1369.861343	9.544000	-5.030000
	272.750600	1369.830265	9.542000	-5.160000
	272.849606	1369.812336	9.568000	-5.050000
	272.949612	1369.780064	9.574000	-5.170000
	273.050618	1369.766915	9.576000	-5.010000
	273.149623	1369.768111	9.608000	-4.890000
	273.249629	1369.781260	9.574000	-4.790000
	273.349635	1369.807561	9.580000	-4.680000
	273.449640	1369.815929	9.578000	-4.830000
	273.549646	1369.815929	9.578000	-4.830000
	273.649652	1369.824297	9.552000	-4.830000
	273.751657	1369.829078	9.552000	-4.860000
	273.849663	1369.829078	9.532000	-4.900000
	273.949669	1369.832665	9.548000	-4.870000
	274.049675	1369.814735	9.534000	-5.050000
	274.149681	1369.799195	9.558000	-5.030000
	274.249686	1369.775290	9.546000	-5.100000
	274.349692	1369.760946	9.576000	-5.020000
	274.449697	1369.760946	9.554000	-4.900000
	274.549703	1369.758556	9.590000	-4.920000
	274.649709	1369.759751	9.584000	-4.890000
	274.749715	1369.769314	9.592000	-4.820000
	274.849720	1369.775291	9.584000	-4.850000
	274.949726	1369.811157	9.582000	-4.600000
	275.049732	1369.829089	9.556000	-4.750000
	275.149737	1369.835066	9.560000	-4.850000
	275.249743	1369.835066	9.560000	-4.850000
	275.349749	1369.830284	9.562000	-4.940000
	275.449755	1369.823112	9.532000	-4.960000
	275.549760	1369.806378	9.546000	-5.040000
	275.649766	1369.778886	9.528000	-5.130000
	275.749772	1369.759762	9.558000	-5.060000
	275.849778	1369.735857	9.544000	-5.100000
	275.949783	1369.717928	9.580000	-5.050000
	276.049789	1369.729882	9.598000	-4.800000
	276.149795	1369.752595	9.580000	-4.710000
	276.249801	1369.768135	9.588000	-4.770000
	276.349806	1369.781285	9.576000	-4.790000
	276.449812	1369.813563	9.566000	-4.630000
	276.549818	1369.825518	9.556000	-4.800000
	276.649823	1369.832690	9.534000	-4.840000
	276.749829	1369.835081	9.534000	-4.880000
	276.849835	1369.835081	9.534000	-4.880000
	276.949841	1369.815956	9.528000	-5.060000
	277.049846	1369.794441	9.528000	-5.080000
	277.149852	1369.764559	9.554000	-5.150000
	277.249858	1369.751411	9.550000	-5.010000
	277.349864	1369.729897	9.568000	-5.080000
	277.450869	1369.733483	9.588000	-4.870000
	277.549875	1369.722725	9.586000	-4.990000
	277.649880	1369.727507	9.592000	-4.860000
	277.749887	1369.758589	9.594000	-4.640000
	277.849892	1369.784889	9.586000	-4.680000
	277.949898	1369.792061	9.578000	-4.840000
	278.049903	1369.823144	9.556000	-4.640000
	278.149909	1369.819558	9.572000	-4.930000
	278.249915	1369.807605	9.526000	-5.000000
	278.349921	1369.799237	9.546000	-4.970000
	278.451927	1369.799237	9.546000	-4.970000
	278.549932	1369.781308	9.534000	-5.050000
	278.649938	1369.751427	9.552000	-5.150000
	278.749943	1369.738279	9.576000	-5.010000
	278.849949	1369.738279	9.566000	-4.900000
	278.949955	1369.738279	9.592000	-4.900000
	279.049961	1369.756210	9.574000	-4.750000
	279.149966	1369.787293	9.592000	-4.640000
	279.249972	1369.801638	9.578000	-4.780000
	279.349978	1369.812397	9.576000	-4.810000
	279.449984	1369.825546	9.560000	-4.790000
	279.549989	1369.837501	9.544000	-4.800000
	279.649995	1369.829133	9.552000	-4.970000
	279.750000	1369.825547	9.516000	-4.930000
	279.850007	1369.801641	9.548000	-5.100000
	279.950012	1369.775345	9.558000	-5.120000
	280.050018	1369.775345	9.558000	-5.120000
	280.150023	1369.770564	9.566000	-4.940000
	280.250029	1369.749049	9.578000	-5.080000
	280.355035	1369.747854	9.574000	-4.910000
	280.450041	1369.751440	9.592000	-4.870000
	280.550046	1369.749049	9.586000	-4.920000
	280.650052	1369.756222	9.596000	-4.840000
	280.750058	1369.769371	9.578000	-4.790000
	280.850064	1369.792084	9.574000	-4.710000
	280.950069	1369.813603	9.578000	-4.720000
	281.050075	1369.829144	9.560000	-4.770000
	281.150081	1369.836316	9.558000	-4.840000
	281.250086	1369.843489	9.550000	-4.840000
	281.350092	1369.843489	9.558000	-4.900000
	281.450098	1369.827950	9.552000	-5.030000
	281.550104	1369.818387	9.552000	-4.980000
	281.650109	1369.783724	9.540000	-5.190000
	281.750115	1369.770576	9.530000	-5.010000
	281.850121	1369.770576	9.530000	-5.010000
	281.950127	1369.755037	9.556000	-5.030000
	282.050132	1369.746670	9.582000	-4.970000
	282.150138	1369.733522	9.584000	-5.010000
	282.254144	1369.725155	9.598000	-4.970000
	282.350150	1369.735913	9.580000	-4.810000
	282.450155	1369.768191	9.592000	-4.630000
	282.550161	1369.794491	9.598000	-4.680000
	282.650167	1369.816010	9.560000	-4.720000
	282.750172	1369.826769	9.562000	-4.810000
	282.850178	1369.821987	9.550000	-4.940000
	282.950184	1369.826769	9.556000	-4.860000
	283.050189	1369.830355	9.550000	-4.870000
	283.151196	1369.820792	9.524000	-4.980000
	283.250201	1369.811230	9.528000	-4.980000
	283.350207	1369.789714	9.542000	-5.080000
	283.450212	1369.770590	9.548000	-5.060000
	283.552218	1369.770590	9.548000	-5.060000
	283.652224	1369.749075	9.564000	-5.080000
	283.750229	1369.737122	9.582000	-5.000000
	283.850235	1369.725169	9.574000	-5.000000
	283.950241	1369.723974	9.606000	-4.910000
	284.050247	1369.727560	9.608000	-4.870000
	284.150252	1369.743100	9.618000	-4.770000
	284.250258	1369.762227	9.600000	-4.740000
	284.350264	1369.788527	9.588000	-4.680000
	284.450270	1369.807654	9.564000	-4.740000
	284.550275	1369.826782	9.554000	-4.740000
	284.650281	1369.826782	9.546000	-4.900000
	284.750287	1369.812438	9.546000	-5.020000
	284.850293	1369.801679	9.526000	-4.990000
	284.950298	1369.793312	9.544000	-4.970000
	285.050304	1369.793312	9.544000	-4.970000
	285.150310	1369.777773	9.558000	-5.030000
	285.250315	1369.767015	9.544000	-4.990000
	285.350321	1369.756258	9.568000	-4.990000
	285.450327	1369.740719	9.590000	-5.030000
	285.550333	1369.733547	9.592000	-4.960000
	285.650338	1369.728766	9.612000	-4.940000
	285.750344	1369.721594	9.600000	-4.960000
	285.850350	1369.740721	9.602000	-4.740000
	285.950356	1369.762238	9.582000	-4.720000
	286.053361	1369.783756	9.586000	-4.720000
	286.150367	1369.799297	9.582000	-4.770000
	286.250372	1369.805274	9.544000	-4.850000
	286.350379	1369.816033	9.524000	-4.810000
	286.450384	1369.810056	9.518000	-4.950000
	286.600393	1369.804079	9.538000	-4.950000
	286.700398	1369.781369	9.562000	-5.090000
	286.800404	1369.781369	9.562000	-5.090000
	286.900410	1369.749098	9.558000	-5.170000
	287.000415	1369.737145	9.596000	-5.000000
	287.100421	1369.728778	9.594000	-4.970000
	287.200427	1369.720411	9.596000	-4.970000
	287.300433	1369.741928	9.604000	-4.720000
	287.402438	1369.759859	9.604000	-4.750000
	287.500444	1369.764641	9.586000	-4.860000
	287.600450	1369.783768	9.580000	-4.740000
	287.700456	1369.796917	9.562000	-4.790000
	287.800461	1369.805285	9.558000	-4.830000
	287.901467	1369.817239	9.522000	-4.800000
	288.000473	1369.811263	9.538000	-4.950000
	288.100478	1369.801700	9.542000	-4.980000
	288.200484	1369.793332	9.548000	-4.970000
	288.300490	1369.762256	9.550000	-5.160000
	288.400496	1369.735961	9.564000	-5.120000
	288.500501	1369.735961	9.564000	-5.120000
	288.600507	1369.724008	9.588000	-5.000000
	288.700513	1369.722813	9.588000	-4.910000
	288.800519	1369.733571	9.616000	-4.810000
	288.900524	1369.753893	9.578000	-4.730000
	289.000530	1369.781389	9.582000	-4.670000
	289.100535	1369.794538	9.548000	-4.790000
	289.200541	1369.788562	9.540000	-4.950000
	289.300547	1369.769437	9.544000	-5.060000
	289.402553	1369.761070	9.566000	-4.970000
	289.499558	1369.750312	9.558000	-4.990000
	289.599564	1369.718042	9.566000	-5.170000
	289.699570	1369.703699	9.562000	-5.020000
	289.799575	1369.703699	9.562000	-5.020000
	289.899581	1369.690551	9.596000	-5.010000
	289.999587	1369.695333	9.592000	-4.860000
	290.099593	1369.704895	9.592000	-4.820000
	290.199598	1369.726412	9.604000	-4.720000
	290.299604	1369.740757	9.596000	-4.780000
	290.399610	1369.773034	9.584000	-4.630000
	290.499616	1369.792161	9.570000	-4.740000
	290.599621	1369.784989	9.562000	-4.960000
	290.699627	1369.793357	9.550000	-4.830000
	290.799633	1369.777818	9.552000	-5.030000
	290.899639	1369.750328	9.570000	-5.130000
	290.999644	1369.739570	9.592000	-4.990000
	291.099650	1369.709690	9.606000	-5.150000
	291.199656	1369.707300	9.598000	-4.920000
	291.300662	1369.721644	9.596000	-4.780000
	291.399667	1369.721644	9.596000	-4.780000
	291.499673	1369.745552	9.572000	-4.700000
	291.599679	1369.763483	9.560000	-4.750000
	291.699684	1369.771851	9.562000	-4.830000
	291.799690	1369.774242	9.570000	-4.880000
	291.899696	1369.757508	9.564000	-5.040000
	292.003702	1369.728822	9.582000	-5.140000
	292.099707	1369.706113	9.598000	-5.090000
	292.200713	1369.703723	9.616000	-4.920000
	292.299718	1369.704918	9.600000	-4.890000
	292.399724	1369.716871	9.608000	-4.800000
	292.499730	1369.740780	9.610000	-4.700000
	292.599736	1369.757515	9.588000	-4.760000
	292.699741	1369.768274	9.586000	-4.810000
	292.799747	1369.769469	9.558000	-4.890000
	292.899753	1369.759907	9.538000	-4.980000
	292.999759	1369.759907	9.538000	-4.980000
	293.099764	1369.750344	9.578000	-4.980000
	293.199770	1369.730025	9.606000	-5.070000
	293.299776	1369.720463	9.596000	-4.980000
	293.399782	1369.727635	9.596000	-4.840000
	293.499787	1369.741979	9.606000	-4.780000
	293.599793	1369.759911	9.576000	-4.750000
	293.699799	1369.755129	9.562000	-4.940000
	293.799804	1369.757520	9.562000	-4.880000
	293.899810	1369.733615	9.560000	-5.100000
	293.999816	1369.724053	9.576000	-4.980000
	294.099822	1369.713296	9.588000	-4.990000
	294.199827	1369.715686	9.610000	-4.880000
	294.299833	1369.724054	9.612000	-4.830000
	294.401839	1369.739594	9.590000	-4.770000
	294.499845	1369.758720	9.572000	-4.740000
	294.599850	1369.758720	9.572000	-4.740000
	294.699856	1369.767088	9.570000	-4.830000
	294.799861	1369.770674	9.546000	-4.870000
	294.899867	1369.759916	9.564000	-4.990000
	294.999873	1369.740792	9.554000	-5.060000
	295.102879	1369.715692	9.588000	-5.110000
	295.199884	1369.716888	9.618000	-4.890000
	295.299890	1369.720474	9.622000	-4.870000
	295.399896	1369.747969	9.602000	-4.670000
	295.499902	1369.759922	9.568000	-4.800000
	295.599907	1369.763508	9.552000	-4.870000
	295.699913	1369.757532	9.564000	-4.950000
	295.799919	1369.745579	9.558000	-5.000000
	295.899924	1369.726455	9.588000	-5.060000
	295.999930	1369.715698	9.584000	-4.990000
	296.099936	1369.719284	9.614000	-4.870000
	296.199942	1369.739605	9.630000	-4.730000
	296.299947	1369.739605	9.630000	-4.730000
	296.399953	1369.768296	9.588000	-4.660000
	296.499959	1369.794597	9.564000	-4.680000
	296.599965	1369.794597	9.556000	-4.900000
	296.699970	1369.775472	9.570000	-5.060000
	296.799976	1369.749176	9.554000	-5.120000
	296.899981	1369.732443	9.584000	-5.040000
	296.999988	1369.728857	9.600000	-4.930000
	297.099993	1369.736029	9.604000	-4.840000
	297.199999	1369.753960	9.602000	-4.750000
	297.300004	1369.764718	9.588000	-4.810000
	297.400010	1369.774282	9.570000	-4.820000
	297.500016	1369.776672	9.538000	-4.880000
	297.600022	1369.749182	9.566000	-5.130000
	297.700027	1369.728863	9.586000	-5.070000
	297.800033	1369.716910	9.606000	-5.000000
	297.900039	1369.716910	9.606000	-5.000000
	298.000045	1369.728863	9.608000	-4.800000
	298.100050	1369.751576	9.588000	-4.710000
	298.200056	1369.773094	9.586000	-4.720000
	298.300062	1369.783853	9.566000	-4.810000
	298.400067	1369.786244	9.568000	-4.880000
	298.500073	1369.779072	9.544000	-4.960000
	298.600079	1369.753971	9.576000	-5.110000
	298.700085	1369.747995	9.582000	-4.950000
	298.800090	1369.749190	9.612000	-4.890000
	298.901096	1369.769512	9.586000	-4.730000
	299.000102	1369.786248	9.602000	-4.760000
	299.100108	1369.787444	9.576000	-4.890000
	299.200113	1369.779076	9.566000	-4.970000
	299.300119	1369.765928	9.570000	-5.010000
	299.400125	1369.747999	9.558000	-5.050000
	299.504130	1369.738437	9.596000	-4.980000
	299.600136	1369.732460	9.608000	-4.950000
	299.700142	1369.732460	9.608000	-4.950000
	299.800148	1369.753977	9.594000	-4.720000
	299.903153	1369.785060	9.590000	-4.640000
	300.000159	1369.797014	9.568000	-4.800000
	300.100165	1369.789842	9.566000	-4.960000
	300.200171	1369.776694	9.574000	-5.010000
	300.300176	1369.765936	9.566000	-4.990000
	300.400182	1369.748007	9.606000	-5.050000
	300.500187	1369.742030	9.602000	-4.950000
	300.600194	1369.753984	9.610000	-4.800000
	300.700199	1369.769524	9.568000	-4.770000
	300.801205	1369.770720	9.554000	-4.890000
	300.900210	1369.762352	9.558000	-4.970000
	301.000216	1369.742033	9.574000	-5.070000
	301.100222	1369.742033	9.574000	-5.070000
	301.200228	1369.742033	9.600000	-4.900000
	301.300233	1369.758769	9.608000	-4.760000
	301.400239	1369.779091	9.608000	-4.730000
	301.500245	1369.794632	9.586000	-4.770000
	301.600251	1369.801804	9.574000	-4.840000
	301.700256	1369.789851	9.554000	-5.000000
	301.802262	1369.761165	9.572000	-5.140000
	301.900268	1369.739650	9.584000	-5.080000
	302.000273	1369.738455	9.608000	-4.910000
	302.100279	1369.752800	9.614000	-4.780000
	302.200285	1369.776708	9.620000	-4.700000
	302.300291	1369.799422	9.578000	-4.710000
	302.400296	1369.801813	9.558000	-4.880000
	302.500302	1369.797032	9.536000	-4.940000
	302.600307	1369.792250	9.556000	-4.940000
	302.700314	1369.771930	9.582000	-5.070000
	302.802320	1369.771930	9.582000	-5.070000
	302.900325	1369.745635	9.564000	-5.120000
	303.000330	1369.742049	9.594000	-4.930000
	303.100336	1369.754003	9.600000	-4.800000
	303.200342	1369.764761	9.608000	-4.810000
	303.300348	1369.771934	9.576000	-4.840000
	303.400353	1369.791061	9.564000	-4.740000
	303.500359	1369.773131	9.562000	-5.050000
	303.600365	1369.761178	9.584000	-5.000000
	303.700371	1369.733688	9.584000	-5.130000
	303.800376	1369.732493	9.612000	-4.910000
	303.900382	1369.734883	9.612000	-4.880000
	304.000388	1369.765965	9.596000	-4.640000
	304.100393	1369.792266	9.590000	-4.680000
	304.200399	1369.791070	9.566000	-4.910000
	304.300405	1369.780312	9.568000	-4.990000
	304.420412	1369.780312	9.568000	-4.990000
	304.503417	1369.750431	9.568000	-5.150000
	304.600422	1369.733698	9.608000	-5.040000
	304.700428	1369.727721	9.620000	-4.950000
	304.800434	1369.734893	9.612000	-4.840000
	304.900439	1369.748042	9.608000	-4.790000
	305.000445	1369.750433	9.574000	-4.880000
	305.100451	1369.768364	9.592000	-4.750000
	305.203456	1369.771950	9.572000	-4.870000
	305.300462	1369.746850	9.570000	-5.110000
	305.400468	1369.727726	9.594000	-5.060000
	305.500473	1369.716969	9.610000	-4.990000
	305.600479	1369.714578	9.620000	-4.920000
	305.700485	1369.725336	9.592000	-4.810000
	305.800491	1369.742072	9.574000	-4.760000
	305.900496	1369.750439	9.582000	-4.830000
	306.000502	1369.750439	9.582000	-4.830000
	306.100508	1369.754025	9.558000	-4.870000
	306.250516	1369.744463	9.602000	-4.980000
	306.350522	1369.737291	9.630000	-4.960000
	306.450528	1369.745659	9.626000	-4.830000
	306.550534	1369.763590	9.590000	-4.750000
	306.650539	1369.780326	9.564000	-4.760000
	306.750545	1369.780326	9.564000	-4.900000
	306.849551	1369.779130	9.554000	-4.910000
	306.949556	1369.755225	9.562000	-5.100000
	307.049562	1369.737296	9.586000	-5.050000
	307.149568	1369.721758	9.624000	-5.030000
	307.249574	1369.727735	9.642000	-4.850000
	307.349579	1369.728930	9.614000	-4.890000
	307.449585	1369.728930	9.614000	-4.890000
	307.549591	1369.743275	9.606000	-4.780000
	307.649597	1369.763597	9.578000	-4.730000
	307.749602	1369.761206	9.578000	-4.920000
	307.849608	1369.744472	9.558000	-5.040000
	307.950613	1369.736105	9.570000	-4.970000
	308.049619	1369.725348	9.620000	-4.990000
	308.149625	1369.744474	9.618000	-4.740000
	308.249631	1369.761210	9.608000	-4.760000
	308.349637	1369.780337	9.594000	-4.740000
	308.449642	1369.776751	9.570000	-4.930000
	308.549648	1369.762407	9.566000	-5.020000
	308.649654	1369.748064	9.584000	-5.020000
	308.699656	1369.748064	9.584000	-5.020000
	308.851665	1369.728940	9.618000	-5.060000
	308.952671	1369.744480	9.636000	-4.770000
	309.049676	1369.756433	9.610000	-4.800000
	309.150682	1369.780342	9.600000	-4.700000
	309.249688	1369.777952	9.604000	-4.920000
	309.350694	1369.745681	9.592000	-5.170000
	309.449699	1369.724166	9.592000	-5.080000
	309.549705	1369.722971	9.592000	-4.910000
	309.599708	1369.722971	9.606000	-4.900000
	309.749717	1369.743293	9.602000	-4.730000
	309.852723	1369.766006	9.580000	-4.710000
	309.949728	1369.758834	9.562000	-4.960000
	310.049734	1369.758834	9.562000	-4.960000
	310.149739	1369.737320	9.578000	-5.080000
	310.249745	1369.717001	9.598000	-5.070000
	310.349751	1369.730150	9.612000	-4.790000
	310.449757	1369.743299	9.602000	-4.790000
	310.549762	1369.752862	9.576000	-4.820000
	310.649768	1369.736128	9.598000	-5.040000
	310.749774	1369.718199	9.594000	-5.050000
	310.859780	1369.715809	9.612000	-4.920000
	310.949785	1369.713418	9.614000	-4.920000
	311.049791	1369.713418	9.614000	-4.920000
	311.149796	1369.731349	9.604000	-4.750000
	311.249803	1369.754062	9.578000	-4.710000
	311.349808	1369.742109	9.582000	-5.000000
	311.449814	1369.725375	9.600000	-5.040000
	311.549819	1369.717008	9.604000	-4.970000
	311.649825	1369.722985	9.620000	-4.850000
	311.760832	1369.755262	9.600000	-4.630000
	311.849837	1369.761239	9.566000	-4.850000
	311.950842	1369.761239	9.566000	-4.850000
	312.049848	1369.738530	9.576000	-5.090000
	312.151854	1369.722991	9.596000	-5.030000
	312.299862	1369.719405	9.606000	-4.930000
	312.399868	1369.748096	9.618000	-4.660000
	312.499874	1369.779178	9.584000	-4.640000
	312.599880	1369.795914	9.584000	-4.760000
	312.699885	1369.776790	9.580000	-5.060000
	312.799891	1369.754080	9.582000	-5.090000
	312.899897	1369.739736	9.634000	-5.020000
	312.949900	1369.745713	9.620000	-4.850000
	313.099908	1369.754081	9.600000	-4.830000
	313.149911	1369.754081	9.600000	-4.830000
	313.299920	1369.757667	9.572000	-4.870000
	313.399925	1369.734957	9.588000	-5.090000
	313.499931	1369.730176	9.580000	-4.940000
	313.599937	1369.728981	9.618000	-4.910000
	313.651940	1369.750498	9.610000	-4.720000
	313.799948	1369.758866	9.582000	-4.830000
	313.899954	1369.748108	9.566000	-4.990000
	313.999959	1369.734960	9.582000	-5.010000
	314.099966	1369.728983	9.610000	-4.950000
	314.149968	1369.728983	9.610000	-4.950000
	314.299977	1369.757674	9.598000	-4.660000
	314.399982	1369.772019	9.602000	-4.780000
	314.499988	1369.785168	9.580000	-4.790000
	314.599994	1369.774411	9.576000	-4.990000
	314.700000	1369.750506	9.592000	-5.100000
	314.800005	1369.736162	9.616000	-5.020000
	314.900011	1369.772027	9.620000	-4.600000
	315.000017	1369.783981	9.590000	-4.800000
	315.104023	1369.783981	9.564000	-4.900000
	315.200028	1369.772028	9.568000	-5.000000
	315.300034	1369.772028	9.568000	-5.000000
	315.400040	1369.751708	9.594000	-5.070000
	315.500045	1369.740951	9.626000	-4.990000
	315.600051	1369.762468	9.642000	-4.720000
	315.700057	1369.768445	9.584000	-4.850000
	315.800063	1369.746930	9.582000	-5.080000
	315.900068	1369.729002	9.586000	-5.050000
	316.000074	1369.720635	9.598000	-4.970000
	316.100080	1369.732588	9.616000	-4.800000
	316.200086	1369.754106	9.582000	-4.720000
	316.300091	1369.751715	9.574000	-4.920000
	316.400097	1369.751715	9.574000	-4.920000
	316.500103	1369.737372	9.584000	-5.020000
	316.600109	1369.742153	9.604000	-4.860000
	316.700114	1369.736177	9.644000	-4.950000
	316.800120	1369.768454	9.620000	-4.630000
	316.900126	1369.758892	9.564000	-4.980000
	317.003131	1369.749330	9.594000	-4.980000
	317.100137	1369.746939	9.604000	-4.920000
	317.200143	1369.756502	9.616000	-4.820000
	317.300148	1369.774433	9.608000	-4.750000
	317.400154	1369.774433	9.608000	-4.750000
	317.500160	1369.778019	9.580000	-4.870000
	317.600166	1369.770847	9.590000	-4.960000
	317.700171	1369.756504	9.582000	-5.020000
	317.800177	1369.757699	9.602000	-4.890000
	317.900183	1369.774435	9.598000	-4.760000
	318.009189	1369.787585	9.578000	-4.790000
	318.100194	1369.770850	9.586000	-5.040000
	318.200200	1369.750531	9.602000	-5.070000
	318.300206	1369.750531	9.606000	-4.900000
	318.400211	1369.750531	9.606000	-4.900000
	318.550220	1369.781613	9.604000	-4.640000
	318.650226	1369.788786	9.582000	-4.840000
	318.750231	1369.772052	9.580000	-5.040000
	318.851237	1369.750537	9.578000	-5.080000
	318.950243	1369.738584	9.604000	-5.000000
	319.050249	1369.757711	9.606000	-4.740000
	319.150254	1369.770860	9.584000	-4.790000
	319.250260	1369.761297	9.576000	-4.980000
	319.350266	1369.749345	9.578000	-5.000000
	319.450272	1369.749345	9.578000	-5.000000
	319.550277	1369.764885	9.622000	-4.770000
	319.651283	1369.793576	9.608000	-4.660000
	319.755289	1369.788795	9.574000	-4.940000
	319.850295	1369.769670	9.602000	-5.060000
	319.955300	1369.763694	9.606000	-4.950000
	320.050306	1369.760108	9.626000	-4.930000
	320.151311	1369.766084	9.610000	-4.850000
	320.250317	1369.776843	9.570000	-4.810000
	320.369324	1369.772062	9.586000	-4.940000
	320.450329	1369.772062	9.586000	-4.940000
	320.552334	1369.761304	9.592000	-4.990000
	320.650340	1369.769672	9.600000	-4.830000
	320.756346	1369.774453	9.596000	-4.860000
	320.900354	1369.776844	9.574000	-4.880000
	321.000360	1369.752939	9.596000	-5.100000
	321.100366	1369.756525	9.650000	-4.870000
	321.200372	1369.769674	9.626000	-4.790000
	321.302377	1369.798366	9.586000	-4.660000
	321.450386	1369.799561	9.584000	-4.890000
	321.550392	1369.774460	9.612000	-5.110000
	321.650397	1369.761312	9.634000	-5.010000
	321.751403	1369.760117	9.610000	-4.910000
	321.850409	1369.774462	9.616000	-4.780000
	321.950415	1369.769680	9.586000	-4.940000
	322.050420	1369.748166	9.596000	-5.080000
	322.152426	1369.739799	9.610000	-4.970000
	322.250432	1369.749361	9.616000	-4.820000
	322.350437	1369.763706	9.620000	-4.780000
	322.450443	1369.781638	9.584000	-4.750000
	322.552449	1369.762513	9.576000	-5.060000
	322.650455	1369.762513	9.576000	-5.060000
	322.769461	1369.751755	9.590000	-4.990000
	322.850466	1369.731436	9.604000	-5.070000
	322.950472	1369.745781	9.628000	-4.780000
	323.050478	1369.746976	9.582000	-4.890000
	323.150483	1369.749367	9.586000	-4.880000
	323.250489	1369.735024	9.612000	-5.020000
	323.400497	1369.732633	9.634000	-4.920000
	323.500503	1369.755346	9.618000	-4.710000
	323.600509	1369.764909	9.586000	-4.820000
	323.700515	1369.762518	9.596000	-4.920000
	323.751517	1369.750565	9.598000	-5.000000
	323.900526	1369.750565	9.598000	-5.000000
	324.000532	1369.742198	9.616000	-4.970000
	324.100537	1369.757738	9.614000	-4.770000
	324.200543	1369.769692	9.590000	-4.800000
	324.300549	1369.760130	9.586000	-4.980000
	324.399555	1369.750567	9.610000	-4.980000
	324.499560	1369.733834	9.616000	-5.040000
	324.599566	1369.748178	9.628000	-4.780000
	324.699572	1369.768501	9.620000	-4.730000
	324.799577	1369.776868	9.596000	-4.830000
	324.899583	1369.755353	9.596000	-5.080000
	324.999589	1369.733839	9.584000	-5.080000
	325.099595	1369.723082	9.626000	-4.990000
	325.199600	1369.742208	9.618000	-4.740000
	325.299606	1369.761335	9.592000	-4.740000
	325.399612	1369.761335	9.592000	-4.740000
	325.499618	1369.751772	9.594000	-4.980000
	325.599623	1369.737429	9.608000	-5.020000
	325.699629	1369.738624	9.618000	-4.890000
	325.799634	1369.742210	9.620000	-4.870000
	325.899641	1369.762532	9.578000	-4.730000
	325.999646	1369.754165	9.570000	-4.970000
	326.099652	1369.745798	9.576000	-4.970000
	326.202658	1369.726674	9.600000	-5.060000
	326.299663	1369.744605	9.630000	-4.750000
	326.399669	1369.770905	9.610000	-4.680000
	326.499675	1369.781663	9.584000	-4.810000
	326.599680	1369.768515	9.590000	-5.010000
	326.699686	1369.739829	9.626000	-5.140000
	326.799692	1369.739829	9.626000	-5.140000
	326.899698	1369.743416	9.620000	-4.870000
	326.999703	1369.764933	9.610000	-4.720000
	327.099709	1369.769715	9.602000	-4.860000
	327.199715	1369.762543	9.580000	-4.960000
	327.299720	1369.744614	9.596000	-5.050000
	327.399726	1369.749395	9.626000	-4.860000
	327.499732	1369.757763	9.622000	-4.830000
	327.599738	1369.772108	9.582000	-4.780000
	327.699743	1369.757764	9.584000	-5.020000
	327.799749	1369.749397	9.602000	-4.970000
	327.899755	1369.745811	9.618000	-4.930000
	327.999761	1369.757765	9.628000	-4.800000
	328.099766	1369.761351	9.620000	-4.870000
	328.199772	1369.761351	9.620000	-4.870000
	328.299778	1369.767328	9.576000	-4.850000
	328.399784	1369.758960	9.582000	-4.970000
	328.499789	1369.735056	9.612000	-5.100000
	328.599795	1369.725493	9.612000	-4.980000
	328.699800	1369.733861	9.614000	-4.830000
	328.799806	1369.751792	9.620000	-4.750000
	328.899812	1369.769723	9.594000	-4.750000
	328.999818	1369.600054	9.420000	-6.320000
	329.099823	1369.591688	9.646000	-4.970000
	329.199829	1369.628744	9.632000	-4.590000
	329.299835	1369.677758	9.640000	-4.490000
	329.399840	1369.529602	9.368000	-6.140000
	329.499846	1369.500921	10.142000	-5.140000
	329.599852	1369.692323	9.556000	-3.300000
	329.699858	1369.692323	9.556000	-3.300000
	329.799863	1369.707862	9.730000	-4.770000
	329.899869	1369.822670	9.366000	-3.940000
	329.999875	1369.852558	9.486000	-4.650000
	330.099881	1369.842995	9.554000	-4.980000
	330.199886	1369.829846	9.586000	-5.010000
	330.299892	1369.839410	9.592000	-4.820000
	330.399898	1369.850169	9.598000	-4.810000
	330.499904	1369.868101	9.554000	-4.750000
	330.599909	1369.865710	9.554000	-4.920000
	330.701915	1369.859733	9.546000	-4.950000
	330.799921	1369.839412	9.574000	-5.070000
	330.899926	1369.827459	9.580000	-5.000000
	330.999932	1369.841804	9.602000	-4.780000
	331.099938	1369.851368	9.586000	-4.820000
	331.199944	1369.872887	9.570000	-4.720000
	331.299949	1369.872887	9.570000	-4.720000
	331.399955	1369.860934	9.540000	-5.000000
	331.499961	1369.841808	9.556000	-5.060000
	331.599967	1369.835831	9.566000	-4.950000
	331.699972	1369.821487	9.584000	-5.020000
	331.799978	1369.847788	9.576000	-4.680000
	331.899983	1369.851375	9.584000	-4.870000
	332.002989	1369.863329	9.564000	-4.800000
	332.099995	1369.846594	9.572000	-5.040000
	332.200001	1369.846594	9.584000	-4.900000
	332.300006	1369.844203	9.588000	-4.920000
	332.400012	1369.862136	9.568000	-4.750000
	332.504018	1369.866918	9.566000	-4.860000
	332.600024	1369.857354	9.546000	-4.980000
	332.700029	1369.839424	9.590000	-5.050000
	332.800035	1369.839424	9.590000	-5.050000
	332.900041	1369.827471	9.594000	-5.000000
	333.000047	1369.832252	9.594000	-4.860000
	333.100052	1369.845402	9.562000	-4.790000
	333.200058	1369.839425	9.556000	-4.950000
	333.300064	1369.828667	9.560000	-4.990000
	333.400069	1369.828667	9.564000	-4.900000
	333.500075	1369.822690	9.598000	-4.950000
	333.600081	1369.825081	9.606000	-4.880000
	333.700087	1369.852578	9.576000	-4.670000
	333.800092	1369.868120	9.564000	-4.770000
	333.900098	1369.868120	9.542000	-4.900000
	334.001104	1369.852580	9.568000	-5.030000
	334.100110	1369.850189	9.598000	-4.920000
	334.202115	1369.850189	9.614000	-4.900000
	334.300121	1369.859753	9.574000	-4.820000
	334.400126	1369.859753	9.574000	-4.820000
	334.500132	1369.868121	9.572000	-4.830000
	334.600138	1369.860948	9.550000	-4.960000
	334.700144	1369.838237	9.576000	-5.090000
	334.800149	1369.834651	9.600000	-4.930000
	334.900155	1369.840628	9.596000	-4.850000
	335.000161	1369.859756	9.582000	-4.740000
	335.100167	1369.870515	9.572000	-4.810000
	335.200172	1369.852585	9.572000	-5.050000
	335.300178	1369.833459	9.580000	-5.060000
	335.400184	1369.829873	9.592000	-4.930000
	335.500189	1369.840632	9.602000	-4.810000
	335.600195	1369.868130	9.570000	-4.670000
	335.700201	1369.859762	9.548000	-4.970000
	335.800207	1369.857371	9.552000	-4.920000
	335.900212	1369.826293	9.578000	-5.160000
	336.000218	1369.826293	9.578000	-5.160000
	336.100224	1369.829880	9.602000	-4.870000
	336.200230	1369.853790	9.602000	-4.700000
	336.300235	1369.870527	9.576000	-4.760000
	336.400241	1369.875309	9.534000	-4.860000
	336.500247	1369.847816	9.546000	-5.130000
	336.600253	1369.826300	9.588000	-5.080000
	336.700258	1369.822714	9.604000	-4.930000
	336.800264	1369.834668	9.580000	-4.800000
	336.900270	1369.847819	9.586000	-4.790000
	337.000275	1369.846623	9.570000	-4.910000
	337.100281	1369.821522	9.562000	-5.110000
	337.200287	1369.801201	9.590000	-5.070000
	337.300292	1369.804788	9.600000	-4.870000
	337.401298	1369.819133	9.584000	-4.780000
	337.500304	1369.828696	9.566000	-4.820000
	337.600309	1369.828696	9.566000	-4.820000
	337.700315	1369.810766	9.568000	-5.050000
	337.800321	1369.790446	9.582000	-5.070000
	337.900327	1369.796423	9.596000	-4.850000
	338.003333	1369.801205	9.608000	-4.860000
	338.100338	1369.822723	9.590000	-4.720000
	338.200344	1369.831092	9.570000	-4.830000
	338.300350	1369.816747	9.570000	-5.020000
	338.400355	1369.797622	9.592000	-5.060000
	338.500361	1369.790450	9.602000	-4.960000
	338.601367	1369.813164	9.582000	-4.710000
	338.700373	1369.826314	9.574000	-4.790000
	338.800378	1369.832291	9.546000	-4.850000
	338.900384	1369.816752	9.552000	-5.030000
	339.000390	1369.796432	9.590000	-5.070000
	339.100395	1369.796432	9.590000	-5.070000
	339.200401	1369.795236	9.590000	-4.910000
	339.307407	1369.807191	9.596000	-4.800000
	339.400413	1369.822732	9.566000	-4.770000
	339.500418	1369.811973	9.546000	-4.990000
	339.603424	1369.802411	9.588000	-4.980000
	339.700430	1369.813169	9.610000	-4.810000
	339.800436	1369.821537	9.580000	-4.830000
	339.900441	1369.826319	9.578000	-4.860000
	340.000447	1369.814366	9.564000	-5.000000
	340.102453	1369.805998	9.590000	-4.970000
	340.200459	1369.813171	9.612000	-4.840000
	340.300464	1369.815561	9.598000	-4.880000
	340.400470	1369.815561	9.598000	-4.880000
	340.500475	1369.840667	9.584000	-4.690000
	340.604481	1369.817956	9.590000	-5.090000
	340.700487	1369.795245	9.614000	-5.090000
	340.802493	1369.800027	9.602000	-4.860000
	340.900498	1369.813177	9.588000	-4.790000
	341.000504	1369.829913	9.552000	-4.760000
	341.100510	1369.817960	9.568000	-5.000000
	341.200515	1369.806006	9.580000	-5.000000
	341.300521	1369.789272	9.600000	-5.040000
	341.400527	1369.795249	9.618000	-4.850000
	341.500533	1369.826332	9.598000	-4.640000
	341.600538	1369.844264	9.572000	-4.750000
	341.700544	1369.844264	9.572000	-4.750000
	341.799550	1369.856219	9.564000	-4.800000
	341.899556	1369.850242	9.564000	-4.950000
	341.999561	1369.840679	9.584000	-4.980000
	342.099567	1369.837093	9.608000	-4.930000
	342.199573	1369.845461	9.592000	-4.830000
	342.299578	1369.853829	9.582000	-4.830000
	342.399584	1369.856220	9.562000	-4.880000
	342.499590	1369.850243	9.556000	-4.950000
	342.599596	1369.838289	9.604000	-5.000000
	342.699601	1369.829922	9.612000	-4.970000
	342.799607	1369.837094	9.592000	-4.840000
	342.899613	1369.843072	9.568000	-4.850000
	342.999619	1369.838290	9.564000	-4.940000
	343.099624	1369.820360	9.562000	-5.050000
	343.200630	1369.820360	9.562000	-5.050000
	343.299635	1369.796454	9.602000	-5.100000
	343.399642	1369.796454	9.612000	-4.900000
	343.499647	1370.092213	8.984000	-2.430000
	343.599653	1370.064716	9.596000	-5.130000
	343.657656	1369.953560	9.590000	-5.830000
	343.849667	1369.906943	9.792000	-5.290000
	343.949673	1369.866302	9.574000	-5.240000
	344.049678	1369.808932	9.782000	-5.380000
	344.149684	1369.842407	9.762000	-4.620000
	344.249690	1369.788623	9.694000	-5.350000
	344.350696	1369.728866	9.910000	-5.400000
	344.449701	1369.636852	9.776000	-5.670000
	344.701716	1369.593830	9.722000	-5.260000
	344.799721	1369.689485	9.720000	-4.100000
	344.899727	1369.758832	9.610000	-4.320000
	344.999733	1369.669205	9.536000	-5.650000
	345.100739	1369.658448	9.844000	-4.990000
	345.199744	1369.583165	9.750000	-5.530000
	345.299750	1369.659682	9.746000	-4.260000
	345.399755	1369.671635	9.674000	-4.800000
	345.499762	1369.648926	9.590000	-5.090000
	345.599767	1369.630999	9.654000	-5.050000
	345.699773	1369.638171	9.724000	-4.840000
	345.799778	1369.660882	9.748000	-4.710000
	345.899784	1369.669249	9.710000	-4.830000
	345.999790	1369.642956	9.706000	-5.120000
	346.099796	1369.690774	9.680000	-4.500000
	346.199801	1369.659700	9.722000	-5.160000
	346.299807	1369.659700	9.722000	-5.160000
	346.399813	1369.746986	9.780000	-4.170000
	346.499819	1369.761331	9.710000	-4.780000
	346.599824	1369.725475	9.754000	-5.200000
	346.699830	1369.711132	9.664000	-5.020000
	346.799836	1369.712327	9.626000	-4.890000
	346.899841	1369.744605	9.670000	-4.630000
	346.999847	1369.713529	9.698000	-5.160000
	347.099853	1369.638243	9.780000	-5.530000
	347.199859	1369.647805	9.714000	-4.820000
	347.299864	1369.688450	9.676000	-4.560000
	347.399870	1369.776934	9.708000	-4.160000
	347.499876	1369.760200	9.608000	-5.040000
	347.599882	1369.714784	9.588000	-5.280000
	347.699887	1369.725542	9.748000	-4.810000
	347.799893	1369.741082	9.580000	-4.770000
	347.899899	1369.741082	9.580000	-4.770000
	347.999904	1369.772164	9.680000	-4.640000
	348.099910	1369.780532	9.688000	-4.830000
	348.199916	1369.756627	9.728000	-5.100000
	348.299922	1369.764995	9.600000	-4.830000
	348.399927	1369.805643	9.584000	-4.560000
	348.499933	1369.810424	9.706000	-4.860000
	348.599939	1369.698094	9.674000	-5.840000
	348.699944	1369.668215	9.622000	-5.150000
	348.799950	1369.672996	9.668000	-4.860000
	348.899956	1369.668215	9.726000	-4.940000
	348.999961	1369.712448	9.656000	-4.530000
	349.099967	1369.640746	9.636000	-5.500000
	349.199973	1369.680195	9.588000	-4.570000
	349.299979	1369.688562	9.674000	-4.830000
	349.399984	1369.628810	9.724000	-5.400000
	349.499990	1369.628810	9.724000	-5.400000
	349.600996	1369.578618	9.788000	-5.320000
	349.700002	1369.604915	9.728000	-4.680000
	349.800007	1369.635994	9.568000	-4.640000
	349.900013	1369.652728	9.692000	-4.760000
	350.000019	1369.575056	9.762000	-5.550000
	350.100025	1369.511724	9.678000	-5.430000
	350.200030	1369.534434	9.732000	-4.710000
	350.302036	1369.565511	9.662000	-4.640000
	350.400042	1369.615718	9.596000	-4.480000
	350.500047	1369.664732	9.670000	-4.490000
	350.600053	1369.633658	9.740000	-5.160000
	350.700059	1369.653979	9.730000	-4.730000
	350.800065	1369.675495	9.714000	-4.720000
	350.900070	1369.691035	9.706000	-4.770000
	351.000076	1369.700597	9.634000	-4.820000
	351.100082	1369.700597	9.634000	-4.820000
	351.200088	1369.732874	9.672000	-4.630000
	351.300093	1369.679094	9.730000	-5.350000
	351.400099	1369.675508	9.750000	-4.930000
	351.500104	1369.650410	9.686000	-5.110000
	351.600110	1369.692250	9.772000	-4.550000
	351.700116	1369.731701	9.628000	-4.570000
	351.800122	1369.652829	9.724000	-5.560000
	351.900127	1369.646853	9.684000	-4.950000
	352.000133	1369.615780	9.702000	-5.160000
	352.100139	1369.654033	9.656000	-4.580000
	352.200145	1369.719789	9.748000	-4.350000
	352.300150	1369.725766	9.670000	-4.850000
	352.400156	1369.716204	9.626000	-4.980000
	352.500162	1369.681544	9.644000	-5.190000
	352.600167	1369.625377	9.696000	-5.370000
	352.700173	1369.627767	9.656000	-4.880000
	352.800179	1369.627767	9.656000	-4.880000
	352.900185	1369.619401	9.674000	-4.970000
	353.000190	1369.631353	9.714000	-4.800000
	353.100196	1369.632549	9.632000	-4.890000
	353.200202	1369.642111	9.660000	-4.820000
	353.300208	1369.622988	9.592000	-5.060000
	353.400213	1369.633746	9.662000	-4.810000
	353.500219	1369.658848	9.750000	-4.690000
	353.600224	1369.694711	9.696000	-4.600000
	353.700231	1369.704273	9.724000	-4.820000
	353.800236	1369.724595	9.678000	-4.730000
	353.900242	1369.663646	9.604000	-5.410000
	354.000247	1369.655279	9.650000	-4.970000
	354.100253	1369.670818	9.714000	-4.770000
	354.200259	1369.686358	9.678000	-4.770000
	354.300265	1369.686358	9.678000	-4.770000
	354.400270	1369.693530	9.712000	-4.840000
	354.500276	1369.722220	9.650000	-4.660000
	354.600282	1369.706681	9.630000	-5.030000
	354.700288	1369.715049	9.680000	-4.830000
	354.800293	1369.698316	9.728000	-5.040000
	354.900299	1369.613472	9.746000	-5.610000
	355.000305	1369.633792	9.662000	-4.730000
	355.100310	1369.703136	9.718000	-4.320000
	355.200316	1369.707917	9.646000	-4.860000
	355.300322	1369.719870	9.652000	-4.800000
	355.403328	1369.682820	9.666000	-5.210000
	355.500333	1369.656527	9.698000	-5.120000
	355.600339	1369.703150	9.674000	-4.510000
	355.700345	1369.729449	9.714000	-4.680000
	355.800351	1369.729449	9.714000	-4.680000
	355.900356	1369.724668	9.566000	-4.940000
	356.000362	1369.672084	9.668000	-5.340000
	356.100368	1369.652961	9.632000	-5.060000
	356.250376	1369.625473	9.714000	-5.130000
	356.350382	1369.670899	9.654000	-4.520000
	356.450388	1369.691220	9.680000	-4.730000
	356.550394	1369.656561	9.660000	-5.190000
	356.650399	1369.654171	9.594000	-4.920000
	356.700402	1369.675687	9.668000	-4.720000
	356.850410	1369.733073	9.718000	-4.420000
	356.950417	1369.701998	9.648000	-5.160000
	357.050422	1369.706779	9.642000	-4.860000
	357.150428	1369.700803	9.664000	-4.950000
	357.250433	1369.701998	9.658000	-4.890000
	357.350439	1369.704389	9.696000	-4.880000
	357.450445	1369.704389	9.696000	-4.880000
	357.552451	1369.731884	9.666000	-4.670000
	357.650456	1369.711565	9.664000	-5.070000
	357.750462	1369.667345	9.718000	-5.270000
	357.850468	1369.704404	9.624000	-4.590000
	357.950474	1369.687671	9.618000	-5.040000
	358.050479	1369.688866	9.754000	-4.890000
	358.150485	1369.666157	9.694000	-5.090000
	358.250491	1369.643449	9.642000	-5.090000
	358.350496	1369.663770	9.648000	-4.730000
	358.450502	1369.635086	9.638000	-5.140000
	358.550508	1369.633891	9.670000	-4.910000
	358.650514	1369.627915	9.644000	-4.950000
	358.750519	1369.657799	9.672000	-4.650000
	358.850525	1369.657799	9.672000	-4.650000
	358.950531	1369.593269	9.638000	-5.440000
	359.050537	1369.612394	9.662000	-4.740000
	359.150542	1369.651842	9.660000	-4.570000
	359.250548	1369.678140	9.692000	-4.680000
	359.349554	1369.688898	9.762000	-4.810000
	359.449559	1369.735522	9.732000	-4.510000
	359.549565	1369.724765	9.654000	-4.990000
	359.649570	1369.705641	9.652000	-5.060000
	359.749577	1369.672177	9.708000	-5.180000
	359.849582	1369.636323	9.728000	-5.200000
	359.949588	1369.648276	9.734000	-4.800000
	360.049593	1369.690116	9.764000	-4.550000
	360.149599	1369.692507	9.740000	-4.880000
	360.249605	1369.692507	9.740000	-4.880000
	360.349611	1369.663823	9.658000	-5.140000
	360.449616	1369.614825	9.692000	-5.310000
	360.549622	1369.584948	9.676000	-5.150000
	360.649628	1369.563436	9.662000	-5.080000
	360.749634	1369.611252	9.706000	-4.500000
	360.849639	1369.648309	9.698000	-4.590000
	360.949645	1369.637552	9.660000	-4.990000
	361.049651	1369.686567	9.666000	-4.490000
	361.149656	1369.697324	9.602000	-4.810000
	361.249662	1369.682982	9.664000	-5.020000
	361.349668	1369.656688	9.648000	-5.120000
	361.449674	1369.662665	9.728000	-4.850000
	361.549679	1369.663860	9.686000	-4.890000
	361.649685	1369.684181	9.686000	-4.730000
	361.750691	1369.717653	9.652000	-4.620000
	361.849697	1369.717653	9.652000	-4.620000
	361.949702	1369.687773	9.624000	-5.150000
	362.049708	1369.647139	9.754000	-5.240000
	362.149714	1369.662678	9.766000	-4.770000
	362.249720	1369.659093	9.718000	-4.930000
	362.349725	1369.656702	9.688000	-4.920000
	362.449731	1369.648336	9.630000	-4.970000
	362.549736	1369.604118	9.734000	-5.270000
	362.649742	1369.624438	9.676000	-4.730000
	362.749748	1369.617267	9.674000	-4.960000
	362.849754	1369.648346	9.750000	-4.640000
	362.949759	1369.674644	9.676000	-4.680000
	363.049765	1369.654326	9.688000	-5.070000
	363.149771	1369.613693	9.646000	-5.240000
	363.249777	1369.594571	9.696000	-5.060000
	363.349782	1369.656737	9.704000	-4.380000
	363.399785	1369.705752	9.672000	-4.490000
	363.549794	1369.705752	9.672000	-4.490000
	363.649799	1369.726074	9.720000	-4.730000
	363.749805	1369.683049	9.648000	-5.260000
	363.849811	1369.669901	9.646000	-5.010000
	363.952817	1369.640023	9.684000	-5.150000
	364.049822	1369.588636	9.702000	-5.330000
	364.149828	1369.644823	9.700000	-4.430000
	364.249834	1369.671121	9.674000	-4.680000
	364.349840	1369.638853	9.682000	-5.170000
	364.449845	1369.642438	9.652000	-4.870000
	364.549851	1369.667541	9.592000	-4.690000
	364.649857	1369.697426	9.612000	-4.650000
	364.749863	1369.735681	9.620000	-4.580000
	364.849868	1369.761980	9.592000	-4.680000
	364.949874	1369.771543	9.566000	-4.820000
	365.049880	1369.761981	9.566000	-4.980000
	365.149885	1369.761981	9.566000	-4.980000
	365.249891	1369.752419	9.580000	-4.980000
	365.349897	1369.742856	9.598000	-4.980000
	365.449903	1369.778721	9.602000	-4.600000
	365.550908	1369.806217	9.592000	-4.670000
	365.649914	1369.810999	9.578000	-4.860000
	365.749920	1369.794264	9.586000	-5.040000
	365.849926	1369.779921	9.600000	-5.020000
	365.949931	1369.788288	9.602000	-4.830000
	366.049937	1369.811002	9.624000	-4.710000
	366.149942	1369.831325	9.590000	-4.730000
	366.249949	1369.831325	9.582000	-4.900000
	366.349954	1369.821763	9.564000	-4.980000
	366.449960	1369.811004	9.624000	-4.990000
	366.549965	1369.811004	9.624000	-4.990000
	366.649971	1369.806223	9.640000	-4.940000
	366.749977	1369.826546	9.624000	-4.730000
	366.849983	1369.840892	9.596000	-4.780000
	366.949988	1369.833719	9.576000	-4.960000
	367.049994	1369.820570	9.588000	-5.010000
	367.150000	1369.805031	9.630000	-5.030000
	367.250006	1369.806227	9.642000	-4.890000
	367.350011	1369.818181	9.628000	-4.800000
	367.450017	1369.831331	9.610000	-4.790000
	367.550023	1369.827745	9.570000	-4.930000
	367.650028	1369.809815	9.574000	-5.050000
	367.750034	1369.790690	9.596000	-5.060000
	367.850040	1369.794276	9.646000	-4.870000
	367.950046	1369.809817	9.610000	-4.770000
	368.050051	1369.820576	9.612000	-4.810000
	368.150057	1369.818185	9.576000	-4.920000
	368.250062	1369.818185	9.576000	-4.920000
	368.350069	1369.793084	9.604000	-5.110000
	368.450074	1369.779935	9.618000	-5.010000
	368.550080	1369.793085	9.632000	-4.790000
	368.650085	1369.803844	9.618000	-4.810000
	368.750091	1369.825362	9.610000	-4.720000
	368.850097	1369.816995	9.572000	-4.970000
	368.953103	1369.806237	9.596000	-4.990000
	369.050108	1369.811018	9.624000	-4.860000
	369.151114	1369.819386	9.646000	-4.830000
	369.250120	1369.832536	9.606000	-4.790000
	369.350126	1369.836123	9.602000	-4.870000
	369.450131	1369.820583	9.586000	-5.030000
	369.550137	1369.820583	9.586000	-5.030000
	369.650143	1369.812216	9.618000	-4.970000
	369.752149	1369.814606	9.624000	-4.880000
	369.850154	1369.830147	9.616000	-4.770000
	369.952160	1369.828952	9.586000	-4.910000
	370.050166	1369.805046	9.608000	-5.100000
	370.150171	1369.796679	9.628000	-4.970000
	370.250177	1369.806242	9.648000	-4.820000
	370.350183	1369.806242	9.648000	-4.820000
	370.457189	1369.794289	9.606000	-5.000000
	370.550194	1369.809829	9.632000	-4.770000
	370.650200	1369.830152	9.616000	-4.730000
	370.750206	1369.838520	9.572000	-4.830000
	370.852211	1369.819395	9.592000	-5.060000
	370.952217	1369.803856	9.628000	-5.030000
	371.050223	1369.819397	9.640000	-4.770000
	371.150229	1369.839720	9.616000	-4.730000
	371.250234	1369.852870	9.600000	-4.790000
	371.400243	1369.838526	9.590000	-5.020000
	371.500248	1369.815815	9.616000	-5.090000
	371.600254	1369.797885	9.636000	-5.050000
	371.700260	1369.797885	9.636000	-5.050000
	371.800266	1369.802667	9.624000	-4.860000
	371.900271	1369.832555	9.620000	-4.650000
	372.000277	1369.842118	9.608000	-4.820000
	372.100283	1369.826579	9.588000	-5.030000
	372.200289	1369.809844	9.610000	-5.040000
	372.250291	1369.799086	9.638000	-4.990000
	372.400300	1369.812236	9.624000	-4.790000
	372.500306	1369.832559	9.628000	-4.730000
	372.600311	1369.832559	9.592000	-4.900000
	372.700317	1369.812239	9.596000	-5.070000
	372.800323	1369.803871	9.622000	-4.970000
	372.900329	1369.799090	9.642000	-4.940000
	373.002335	1369.812239	9.622000	-4.790000
	373.100340	1369.838541	9.608000	-4.680000
	373.201346	1369.838541	9.608000	-4.680000
	373.300352	1369.834954	9.588000	-4.930000
	373.400357	1369.821806	9.608000	-5.010000
	373.500363	1369.808657	9.654000	-5.010000
	373.600368	1369.818220	9.638000	-4.820000
	373.700375	1369.834957	9.612000	-4.760000
	373.800380	1369.827785	9.592000	-4.960000
	373.900386	1369.809855	9.622000	-5.050000
	374.000391	1369.799097	9.648000	-4.990000
	374.100397	1369.828984	9.630000	-4.650000
	374.208404	1369.836157	9.578000	-4.840000
	374.303409	1369.836157	9.578000	-4.840000
	374.400414	1369.823008	9.604000	-5.010000
	374.500420	1369.809859	9.640000	-5.010000
	374.600426	1369.827791	9.630000	-4.750000
	374.700432	1369.844528	9.606000	-4.760000
	374.800437	1369.821817	9.608000	-5.090000
	374.900443	1369.814645	9.640000	-4.960000
	375.000449	1369.815840	9.636000	-4.890000
	375.102455	1369.846924	9.608000	-4.640000
	375.201460	1369.846924	9.608000	-4.640000
	375.300466	1369.824213	9.612000	-5.090000
	375.400472	1369.817041	9.630000	-4.960000
	375.500477	1369.815845	9.626000	-4.910000
	375.600483	1369.836169	9.594000	-4.730000
	375.700489	1369.821824	9.600000	-5.020000
	375.800495	1369.811066	9.644000	-4.990000
	375.900500	1369.828998	9.636000	-4.750000
	376.000506	1369.842148	9.592000	-4.790000
	376.107512	1369.836171	9.598000	-4.950000
	376.200517	1369.836171	9.650000	-4.900000
	376.300523	1369.836171	9.650000	-4.900000
	376.400529	1369.862473	9.638000	-4.680000
	376.500535	1369.864864	9.586000	-4.880000
	376.600540	1369.840957	9.594000	-5.100000
	376.700546	1369.402343	9.592000	-8.570000
	376.799551	1369.450154	9.692000	-4.500000
	376.899558	1369.474057	9.668000	-4.700000
	377.000563	1369.484813	9.712000	-4.810000
	377.099569	1369.519476	9.704000	-4.610000
	377.199574	1369.542186	9.682000	-4.710000
	377.299580	1369.542186	9.682000	-4.710000
	377.399586	1369.539795	9.700000	-4.920000
	377.499592	1369.573264	9.710000	-4.620000
	377.599597	1369.595974	9.694000	-4.710000
	377.699603	1369.589998	9.678000	-4.950000
	377.799609	1369.601951	9.702000	-4.800000
	377.900615	1369.624662	9.710000	-4.710000
	378.009621	1369.601954	9.670000	-5.090000
	378.099626	1369.603149	9.710000	-4.890000
	378.199632	1369.618688	9.698000	-4.770000
	378.299637	1369.618688	9.676000	-4.900000
	378.399643	1369.618688	9.676000	-4.900000
	378.549652	1369.604346	9.692000	-5.020000
	378.649658	1369.616299	9.710000	-4.800000
	378.749663	1369.631837	9.698000	-4.770000
	378.849669	1369.633033	9.652000	-4.890000
	378.949675	1369.616300	9.700000	-5.040000
	379.049680	1369.628253	9.714000	-4.800000
	379.149686	1369.630643	9.674000	-4.880000
	379.249692	1369.619887	9.684000	-4.990000
	379.349698	1369.633035	9.710000	-4.790000
	379.449703	1369.633035	9.710000	-4.790000
	379.552709	1369.647378	9.682000	-4.780000
	379.649714	1369.646183	9.672000	-4.910000
	379.749721	1369.627061	9.712000	-5.060000
	379.849726	1369.648576	9.722000	-4.720000
	379.949732	1369.668897	9.658000	-4.730000
	380.049737	1369.644994	9.666000	-5.100000
	380.149743	1369.652166	9.708000	-4.840000
	380.249749	1369.664119	9.676000	-4.800000
	380.351755	1369.648581	9.650000	-5.030000
	380.449760	1369.648581	9.650000	-5.030000
	380.549766	1369.640215	9.682000	-4.970000
	380.649772	1369.655754	9.716000	-4.770000
	380.749778	1369.679661	9.680000	-4.700000
	380.849783	1369.665318	9.666000	-5.020000
	380.949789	1369.658147	9.704000	-4.960000
	381.049795	1369.671295	9.702000	-4.790000
	381.149800	1369.667710	9.652000	-4.930000
	381.249806	1369.658148	9.666000	-4.980000
	381.358812	1369.664124	9.702000	-4.850000
	381.449818	1369.664124	9.702000	-4.850000
	381.549823	1369.695205	9.692000	-4.640000
	381.649829	1369.694009	9.646000	-4.910000
	381.749835	1369.685643	9.724000	-4.970000
	381.849841	1369.697596	9.692000	-4.800000
	381.949846	1369.710745	9.694000	-4.790000
	382.049852	1369.711940	9.684000	-4.890000
	382.149858	1369.701183	9.690000	-4.990000
	382.250864	1369.716722	9.700000	-4.770000
	382.349869	1369.722699	9.670000	-4.850000
	382.449875	1369.722699	9.670000	-4.850000
	382.549881	1369.699990	9.664000	-5.090000
	382.649886	1369.696404	9.686000	-4.930000
	382.749892	1369.710748	9.684000	-4.780000
	382.849898	1369.705967	9.646000	-4.940000
	382.949903	1369.677283	9.676000	-5.140000
	383.049909	1369.672502	9.704000	-4.940000
	383.150915	1369.682064	9.682000	-4.820000
	383.259921	1369.662941	9.658000	-5.060000
	383.349926	1369.652184	9.706000	-4.990000
	383.449932	1369.652184	9.706000	-4.990000
	383.549938	1369.676092	9.704000	-4.700000
	383.649943	1369.688045	9.646000	-4.800000
	383.749949	1369.672507	9.684000	-5.030000
	383.849955	1369.660555	9.712000	-5.000000
	383.949961	1369.672508	9.678000	-4.800000
	384.049966	1369.659361	9.632000	-5.010000
	384.149972	1369.653385	9.692000	-4.950000
	384.253978	1369.667728	9.728000	-4.780000
	384.349984	1369.680877	9.682000	-4.790000
	384.449989	1369.680877	9.682000	-4.790000
	384.549995	1369.682072	9.674000	-4.890000
	384.650001	1369.674901	9.710000	-4.960000
	384.750006	1369.694026	9.690000	-4.740000
	384.850012	1369.689245	9.662000	-4.940000
	384.950018	1369.682074	9.692000	-4.960000
	385.053024	1369.680878	9.702000	-4.910000
	385.158030	1369.697613	9.678000	-4.760000
	385.250035	1369.689247	9.652000	-4.970000
	385.350041	1369.689247	9.652000	-4.970000
	385.450047	1369.678490	9.680000	-4.990000
	385.550052	1369.700006	9.710000	-4.720000
	385.651058	1369.702397	9.654000	-4.880000
	385.750063	1369.678493	9.694000	-5.100000
	385.850070	1369.670126	9.698000	-4.970000
	385.950075	1369.689252	9.672000	-4.740000
	386.050081	1369.702401	9.652000	-4.790000
	386.150086	1369.691643	9.682000	-4.990000
	386.250092	1369.686862	9.716000	-4.940000
	386.350098	1369.686862	9.716000	-4.940000
	386.450104	1369.705988	9.680000	-4.740000
	386.550109	1369.700012	9.660000	-4.950000
	386.650115	1369.682084	9.692000	-5.050000
	386.752121	1369.704796	9.704000	-4.710000
	386.852127	1369.726313	9.670000	-4.720000
	386.954133	1369.709579	9.680000	-5.040000
	387.050138	1369.722728	9.692000	-4.790000
	387.153144	1369.722728	9.692000	-4.790000
	387.250149	1369.741855	9.666000	-4.740000
	387.352155	1369.738269	9.660000	-4.930000
	387.450161	1369.723926	9.656000	-5.020000
	387.550167	1369.720340	9.712000	-4.930000
	387.650172	1369.731098	9.702000	-4.810000
	387.750178	1369.746638	9.670000	-4.770000
	387.850183	1369.719148	9.656000	-5.130000
	387.953189	1369.706000	9.696000	-5.010000
	388.050195	1369.727517	9.694000	-4.720000
	388.150201	1369.737080	9.684000	-4.820000
	388.250206	1369.715566	9.670000	-5.080000
	388.350212	1369.715566	9.670000	-5.080000
	388.450218	1369.713175	9.696000	-4.920000
	388.550224	1369.726324	9.692000	-4.790000
	388.650229	1369.738278	9.648000	-4.800000
