LabVIEW Measurement	
Writer_Version	2
Reader_Version	2
Separator	Tab
Decimal_Separator	.
Multi_Headings	No
X_Columns	No
Time_Pref	Relative
Operator	Herve
Date	2023/07/31
Time	22:29:55.0904316902160644531
***End_of_Header***	
	
Channels	4				
Samples	4268	4268	4268	4268	
Date	1904/01/01	1904/01/01	1904/01/01	1904/01/01	
Time	09:00:00	09:00:00	09:00:00	09:00:00	
Y_Unit_Label	s	Hz	mV	°	
X_Dimension	Time	Time	Time	Time	
X0	0.0000000000000000E+0	0.0000000000000000E+0	0.0000000000000000E+0	0.0000000000000000E+0	
Delta_X	1.000000	1.000000	1.000000	1.000000	
***End_of_Header***					
X_Value	Time	Res.Frequency	Amplitude	Phase	Comment
	0.050003	1361.536329	11.764000	-5.080000
	0.150009	1361.544646	11.752000	-5.030000
	0.250014	1361.550587	11.764000	-5.050000
	0.350020	1361.552963	11.772000	-5.080000
	0.450026	1361.555340	11.776000	-5.080000
	0.550032	1361.564846	11.770000	-5.020000
	0.650037	1361.552964	11.788000	-5.200000
	0.800046	1361.550588	11.754000	-5.120000
	0.900052	1361.552964	11.766000	-5.080000
	1.000057	1361.551776	11.776000	-5.110000
	1.100063	1361.543459	11.770000	-5.170000
	1.200068	1361.543459	11.770000	-5.170000
	1.301075	1361.541083	11.770000	-5.120000
	1.400080	1361.543459	11.784000	-5.080000
	1.500086	1361.543459	11.776000	-5.100000
	1.600091	1361.543459	11.782000	-5.100000
	1.700097	1361.543459	11.756000	-5.100000
	1.803103	1361.539895	11.770000	-5.130000
	1.950111	1361.543459	11.774000	-5.070000
	2.051117	1361.548212	11.752000	-5.060000
	2.150123	1361.551777	11.784000	-5.070000
	2.251129	1361.557718	11.756000	-5.050000
	2.350134	1361.550589	11.756000	-5.160000
	2.457140	1361.544648	11.754000	-5.150000
	2.550146	1361.541083	11.750000	-5.130000
	2.650152	1361.548213	11.762000	-5.040000
	2.750157	1361.554154	11.760000	-5.050000
	2.861164	1361.558906	11.772000	-5.060000
	2.950169	1361.556530	11.780000	-5.120000
	3.050174	1361.558906	11.762000	-5.080000
	3.200183	1361.557718	11.780000	-5.110000
	3.304189	1361.561283	11.756000	-5.070000
	3.400195	1361.557718	11.754000	-5.130000
	3.500200	1361.554154	11.768000	-5.130000
	3.653209	1361.547025	11.766000	-5.160000
	3.753215	1361.538708	11.766000	-5.170000
	3.850220	1361.535144	11.764000	-5.130000
	3.950226	1361.544649	11.764000	-5.020000
	4.050231	1361.543461	11.760000	-5.110000
	4.150238	1361.550590	11.756000	-5.040000
	4.314247	1361.544649	11.766000	-5.150000
	4.400252	1361.536333	11.752000	-5.170000
	4.500257	1361.532768	11.776000	-5.130000
	4.600263	1361.545839	11.746000	-4.990000
	4.700269	1361.541086	11.756000	-5.140000
	4.850277	1361.538710	11.768000	-5.120000
	4.950283	1361.544651	11.766000	-5.050000
	5.052289	1361.545839	11.788000	-5.090000
	5.150295	1361.552968	11.764000	-5.040000
	5.300303	1361.552968	11.764000	-5.040000
	5.400309	1361.554156	11.774000	-5.090000
	5.500315	1361.549403	11.748000	-5.140000
	5.600320	1361.552968	11.756000	-5.070000
	5.700326	1361.549404	11.768000	-5.130000
	5.800332	1361.556533	11.754000	-5.040000
	5.900337	1361.556533	11.776000	-5.100000
	6.000343	1361.551780	11.788000	-5.140000
	6.103349	1361.562474	11.750000	-5.010000
	6.150352	1361.560098	11.766000	-5.120000
	6.300360	1361.560098	11.774000	-5.100000
	6.400366	1361.564851	11.758000	-5.060000
	6.500372	1361.561286	11.766000	-5.130000
	6.600378	1361.550593	11.766000	-5.190000
	6.750386	1361.560099	11.780000	-5.020000
	6.850392	1361.563663	11.752000	-5.070000
	6.950397	1361.557722	11.758000	-5.150000
	7.050403	1361.556534	11.770000	-5.110000
	7.200412	1361.550593	11.758000	-5.150000
	7.300417	1361.550593	11.758000	-5.150000
	7.399423	1361.554158	11.772000	-5.070000
	7.499429	1361.558911	11.750000	-5.060000
	7.599435	1361.548218	11.760000	-5.190000
	7.699440	1361.542277	11.756000	-5.150000
	7.799446	1361.535148	11.766000	-5.160000
	7.899452	1361.536336	11.768000	-5.090000
	8.004458	1361.538713	11.774000	-5.080000
	8.118464	1361.549406	11.758000	-5.010000
	8.199469	1361.493572	11.922000	-5.570000
	8.299475	1361.394987	11.992000	-5.930000
	8.399480	1361.460347	11.798000	-4.550000
	8.499486	1361.498371	11.944000	-4.780000
	8.649495	1361.498371	11.944000	-4.780000
	8.749500	1361.499560	11.840000	-5.090000
	8.849506	1361.526890	11.716000	-4.870000
	8.949512	1361.528078	11.730000	-5.090000
	9.049518	1361.544713	11.666000	-4.960000
	9.149523	1361.635049	11.576000	-4.340000
	9.249529	1361.610098	11.836000	-5.310000
	9.349535	1361.569704	11.626000	-5.440000
	9.449541	1361.538814	11.808000	-5.360000
	9.551546	1361.654126	11.590000	-4.130000
	9.649552	1361.643432	11.972000	-5.190000
	9.749557	1361.769460	11.796000	-4.040000
	9.853564	1361.748071	11.564000	-5.280000
	9.949569	1361.695793	11.768000	-5.540000
	10.049575	1361.626886	11.904000	-5.680000
	10.149580	1361.495039	12.032000	-6.210000
	10.249586	1361.495039	12.032000	-6.210000
	10.349592	1361.474842	11.744000	-5.270000
	10.449598	1361.458209	11.746000	-5.240000
	10.549603	1361.453457	11.792000	-5.140000
	10.649609	1361.459398	11.724000	-5.050000
	10.749615	1361.467715	11.788000	-5.030000
	10.849620	1361.472467	11.754000	-5.060000
	10.949626	1361.520000	11.732000	-4.700000
	11.049632	1361.593689	11.902000	-4.480000
	11.149638	1361.567550	11.900000	-5.320000
	11.249643	1361.550917	11.746000	-5.240000
	11.349649	1361.579436	11.960000	-4.860000
	11.452655	1361.541418	11.832000	-5.420000
	11.549661	1361.579445	11.718000	-4.780000
	11.649666	1361.710227	11.696000	-4.000000
	11.749672	1362.474866	10.912000	1.290000
	11.849678	1363.120351	10.932000	0.300000
	11.949684	1363.657808	10.738000	-0.600000
	12.049689	1364.398108	10.614000	1.080000
	12.149695	1364.618635	11.162000	-3.250000
	12.249701	1364.907298	10.974000	-2.680000
	12.399709	1365.049134	10.770000	-3.910000
	12.499715	1365.174285	10.686000	-4.050000
	12.599720	1365.174285	10.686000	-4.050000
	12.699727	1365.283941	10.720000	-4.180000
	12.799732	1365.317306	10.666000	-4.820000
	12.899738	1365.363782	10.550000	-4.710000
	12.999743	1365.332806	10.538000	-5.360000
	13.099749	1365.335189	10.582000	-5.080000
	13.199755	1365.432932	10.540000	-4.280000
	13.299761	1365.368600	10.638000	-5.640000
	13.399766	1365.453228	10.606000	-4.390000
	13.499772	1365.421059	10.416000	-5.370000
	13.599778	1365.380552	10.424000	-5.440000
	13.699783	1365.301930	10.474000	-5.760000
	13.800789	1365.226887	10.448000	-5.730000
	13.902795	1365.141129	10.416000	-5.820000
	13.999801	1365.068476	10.430000	-5.710000
	14.099806	1365.042271	10.416000	-5.320000
	14.199812	1365.007730	10.430000	-5.390000
	14.299818	1364.961280	10.396000	-5.490000
	14.399824	1364.944605	10.430000	-5.240000
	14.499829	1364.944605	10.430000	-5.240000
	14.599835	1364.841007	10.420000	-5.970000
	14.699841	1364.823143	10.390000	-5.250000
	14.800847	1364.818379	10.342000	-5.140000
	14.899852	1364.799323	10.376000	-5.260000
	14.999858	1364.754072	10.320000	-5.480000
	15.099864	1364.754072	10.310000	-5.100000
	15.199869	1364.754072	10.312000	-5.100000
	15.299875	1364.756454	10.342000	-5.080000
	15.399881	1364.751690	10.366000	-5.140000
	15.499887	1364.730254	10.348000	-5.280000
	15.601892	1364.660004	10.310000	-5.690000
	15.699898	1364.289775	9.694000	-8.210000
	15.799904	1364.395785	10.416000	-4.210000
	15.899909	1364.483928	10.158000	-4.360000
	15.999915	1364.514891	10.360000	-4.840000
	16.099921	1364.547045	10.376000	-4.830000
	16.199926	1364.557763	10.334000	-5.010000
	16.349935	1364.561335	10.412000	-5.070000
	16.449941	1364.538712	10.372000	-5.290000
	16.549947	1364.539903	10.342000	-5.090000
	16.649952	1364.535139	10.328000	-5.140000
	16.749958	1364.539903	10.350000	-5.060000
	16.849964	1364.542284	10.388000	-5.080000
	16.949969	1364.542284	10.388000	-5.080000
	17.049975	1364.535140	10.378000	-5.160000
	17.152981	1364.513707	10.340000	-5.280000
	17.249987	1364.491085	10.360000	-5.290000
	17.349992	1364.483940	10.328000	-5.160000
	17.449998	1364.485131	10.332000	-5.090000
	17.550004	1364.494657	10.332000	-5.020000
	17.650010	1364.502993	10.346000	-5.030000
	17.750015	1364.493467	10.360000	-5.180000
	17.850021	1364.482751	10.376000	-5.190000
	17.954027	1364.480369	10.374000	-5.120000
	18.054033	1364.449414	10.344000	-5.360000
	18.150038	1364.432745	10.324000	-5.240000
	18.250044	1364.408933	10.328000	-5.300000
	18.350049	1364.399408	10.338000	-5.180000
	18.450055	1364.405361	10.380000	-5.050000
	18.550061	1364.404171	10.358000	-5.110000
	18.700069	1364.413696	10.338000	-5.020000
	18.800075	1364.426794	10.308000	-4.990000
	18.900081	1364.423222	10.364000	-5.130000
	19.000087	1364.418460	10.344000	-5.140000
	19.100092	1364.405363	10.338000	-5.210000
	19.200098	1364.401791	10.350000	-5.130000
	19.300104	1364.407744	10.358000	-5.050000
	19.400110	1364.407744	10.358000	-5.050000
	19.503116	1364.407744	10.384000	-5.100000
	19.600121	1364.395838	10.358000	-5.200000
	19.700127	1364.393457	10.352000	-5.120000
	19.800132	1364.392266	10.346000	-5.110000
	19.900138	1364.388694	10.348000	-5.130000
	20.000144	1364.397029	10.336000	-5.030000
	20.100150	1364.397029	10.342000	-5.100000
	20.200155	1364.397029	10.378000	-5.100000
	20.306161	1364.413699	10.340000	-4.960000
	20.400167	1364.423225	10.372000	-5.020000
	20.501173	1364.408938	10.386000	-5.220000
	20.600178	1364.398222	10.360000	-5.190000
	20.705184	1364.385125	10.364000	-5.210000
	20.808190	1364.368457	10.352000	-5.240000
	20.900196	1364.368457	10.344000	-5.100000
	21.050204	1364.374410	10.344000	-5.050000
	21.150210	1364.375601	10.366000	-5.090000
	21.250216	1364.383936	10.354000	-5.030000
	21.350221	1364.389889	10.358000	-5.050000
	21.458227	1364.388699	10.356000	-5.110000
	21.550232	1364.381555	10.370000	-5.160000
	21.659239	1364.382745	10.340000	-5.090000
	21.750244	1364.386317	10.352000	-5.070000
	21.900253	1364.387508	10.370000	-5.090000
	22.000258	1364.385127	10.348000	-5.120000
	22.101264	1364.385127	10.348000	-5.120000
	22.200270	1364.398225	10.352000	-4.990000
	22.300275	1364.394653	10.366000	-5.130000
	22.400281	1364.383937	10.380000	-5.190000
	22.500287	1364.375603	10.376000	-5.170000
	22.600293	1364.370840	10.354000	-5.140000
	22.700298	1364.377984	10.342000	-5.040000
	22.800304	1364.372031	10.348000	-5.150000
	22.900310	1364.374413	10.348000	-5.080000
	23.000316	1364.383938	10.342000	-5.020000
	23.100321	1364.376794	10.354000	-5.160000
	23.200327	1364.366079	10.364000	-5.190000
	23.300333	1364.366079	10.352000	-5.100000
	23.408339	1364.364888	10.350000	-5.110000
	23.500344	1364.369651	10.360000	-5.060000
	23.600350	1364.368460	10.348000	-5.110000
	23.700356	1364.380367	10.362000	-5.000000
	23.800361	1364.380367	10.362000	-5.000000
	23.900367	1364.388702	10.372000	-5.030000
	24.000373	1364.397037	10.356000	-5.030000
	24.100379	1364.374416	10.340000	-5.290000
	24.200384	1364.363701	10.336000	-5.190000
	24.304390	1364.373226	10.334000	-5.020000
	24.400396	1364.373226	10.338000	-5.100000
	24.500401	1364.383942	10.344000	-5.010000
	24.600407	1364.400612	10.368000	-4.960000
	24.700413	1364.404185	10.360000	-5.070000
	24.803419	1364.401803	10.368000	-5.120000
	24.899424	1364.393469	10.336000	-5.170000
	24.999430	1364.385134	10.342000	-5.170000
	25.099435	1364.376800	10.352000	-5.170000
	25.200441	1364.385135	10.362000	-5.030000
	25.299447	1364.389898	10.360000	-5.060000
	25.399453	1364.393470	10.364000	-5.070000
	25.499458	1364.388707	10.358000	-5.140000
	25.599464	1364.388707	10.358000	-5.140000
	25.700470	1364.377992	10.338000	-5.190000
	25.849478	1364.367276	10.354000	-5.190000
	25.949484	1364.368467	10.338000	-5.090000
	26.049490	1364.366086	10.354000	-5.120000
	26.149496	1364.360133	10.364000	-5.150000
	26.249501	1364.367277	10.364000	-5.040000
	26.349507	1364.356561	10.364000	-5.190000
	26.449513	1364.347037	10.352000	-5.180000
	26.549519	1364.343465	10.320000	-5.130000
	26.599521	1364.350609	10.344000	-5.040000
	26.749530	1364.355371	10.354000	-5.060000
	26.849535	1364.360134	10.372000	-5.060000
	26.949542	1364.351800	10.366000	-5.170000
	27.049547	1364.343465	10.364000	-5.170000
	27.099550	1364.341084	10.358000	-5.120000
	27.249558	1364.344656	10.350000	-5.070000
	27.349564	1364.355372	10.352000	-5.010000
	27.449570	1364.370851	10.374000	-4.970000
	27.549576	1364.368470	10.378000	-5.120000
	27.650581	1364.357755	10.364000	-5.190000
	27.749587	1364.363708	10.364000	-5.050000
	27.849593	1364.356564	10.352000	-5.160000
	27.949599	1364.354183	10.372000	-5.120000
	28.049604	1364.354183	10.372000	-5.120000
	28.199613	1364.358946	10.368000	-5.060000
	28.299619	1364.369662	10.358000	-5.010000
	28.399624	1364.375615	10.372000	-5.050000
	28.499630	1364.363709	10.364000	-5.200000
	28.599636	1364.362518	10.356000	-5.110000
	28.699642	1364.370853	10.354000	-5.030000
	28.799647	1364.382760	10.352000	-5.000000
	28.899653	1364.387523	10.362000	-5.060000
	29.002659	1364.386332	10.368000	-5.110000
	29.099664	1364.394667	10.358000	-5.030000
	29.199670	1364.391095	10.372000	-5.130000
	29.299676	1364.377998	10.332000	-5.210000
	29.399682	1364.370855	10.350000	-5.160000
	29.501688	1364.363711	10.352000	-5.160000
	29.599693	1364.377999	10.350000	-4.980000
	29.699699	1364.380381	10.368000	-5.080000
	29.799705	1364.383953	10.358000	-5.070000
	29.899710	1364.379190	10.360000	-5.140000
	30.000716	1364.375618	10.352000	-5.130000
	30.099721	1364.372046	10.336000	-5.130000
	30.199728	1364.375618	10.360000	-5.070000
	30.349736	1364.381572	10.340000	-5.050000
	30.452742	1364.381572	10.384000	-5.100000
	30.549747	1364.388716	10.372000	-5.040000
	30.649753	1364.387525	10.354000	-5.110000
	30.749759	1364.380381	10.372000	-5.160000
	30.849764	1364.379191	10.372000	-5.110000
	30.949770	1364.368475	10.364000	-5.190000
	31.099779	1364.368475	10.344000	-5.100000
	31.199785	1364.381573	10.346000	-4.990000
	31.299790	1364.382764	10.354000	-5.090000
	31.400796	1364.380382	10.332000	-5.120000
	31.549805	1364.369667	10.346000	-5.190000
	31.649810	1364.368476	10.350000	-5.110000
	31.749816	1364.374430	10.348000	-5.050000
	31.851822	1364.382764	10.350000	-5.030000
	31.999830	1364.389908	10.362000	-5.040000
	32.099836	1364.397053	10.352000	-5.040000
	32.199842	1364.401815	10.348000	-5.060000
	32.299848	1364.403006	10.356000	-5.090000
	32.449856	1364.400625	10.366000	-5.120000
	32.549862	1364.395862	10.372000	-5.140000
	32.649868	1364.383956	10.366000	-5.200000
	32.749873	1364.393482	10.358000	-5.020000
	32.849879	1364.382766	10.366000	-5.190000
	32.999887	1364.386338	10.360000	-5.070000
	33.099893	1364.389910	10.352000	-5.070000
	33.199899	1364.397054	10.342000	-5.040000
	33.301905	1364.393482	10.358000	-5.130000
	33.449913	1364.391101	10.370000	-5.120000
	33.549919	1364.385148	10.358000	-5.150000
	33.649925	1364.381576	10.356000	-5.130000
	33.749930	1364.381576	10.356000	-5.130000
	33.899939	1364.393483	10.356000	-5.020000
	33.999945	1364.393483	10.356000	-5.020000
	34.099950	1364.385148	10.348000	-5.170000
	34.199956	1364.391102	10.352000	-5.050000
	34.299962	1364.414917	10.352000	-4.900000
	34.399968	1364.416108	10.374000	-5.090000
	34.499973	1364.474465	10.498000	-4.610000
	34.599979	1364.460177	10.366000	-5.220000
	34.704985	1364.491139	10.330000	-4.840000
	34.817991	1364.462564	10.352000	-5.340000
	34.899996	1364.524497	10.368000	-4.580000
	35.000002	1364.492350	10.388000	-5.370000
	35.100008	1364.469728	10.370000	-5.290000
	35.200013	1364.455440	10.358000	-5.220000
	35.350022	1364.423294	10.386000	-5.370000
	35.450027	1364.404244	10.366000	-5.260000
	35.550034	1364.380433	10.340000	-5.300000
	35.650039	1364.354241	10.312000	-5.320000
	35.800048	1364.348288	10.348000	-5.150000
	35.900054	1364.331620	10.334000	-5.240000
	36.000059	1364.335192	10.348000	-5.070000
	36.100065	1364.323287	10.362000	-5.200000
	36.250073	1364.307810	10.350000	-5.230000
	36.350079	1364.286381	10.344000	-5.280000
	36.450085	1364.268524	10.372000	-5.250000
	36.550091	1364.205437	10.252000	-5.630000
	36.652096	1364.164966	10.396000	-5.440000
	36.800105	1364.109025	10.500000	-5.570000
	36.900111	1364.105454	10.404000	-5.130000
	37.000116	1364.143552	10.426000	-4.780000
	37.100122	1364.161410	10.378000	-4.950000
	37.250131	1364.195938	10.374000	-4.810000
	37.350136	1364.229276	10.366000	-4.820000
	37.450142	1364.268569	10.350000	-4.770000
	37.550148	1364.304290	10.362000	-4.800000
	37.700156	1364.347159	10.328000	-4.740000
	37.800162	1364.405513	10.308000	-4.610000
	37.900168	1364.459104	10.310000	-4.650000
	38.000174	1364.516272	10.282000	-4.620000
	38.100179	1364.516272	10.282000	-4.620000
	38.250188	1364.582973	10.294000	-4.540000
	38.350194	1364.675895	10.282000	-4.320000
	38.450199	1364.735455	10.310000	-4.600000
	38.550205	1364.767615	10.336000	-4.830000
	38.650211	1364.786672	10.302000	-4.940000
	38.750216	1364.806920	10.310000	-4.930000
	38.850222	1364.827169	10.324000	-4.930000
	38.950228	1364.836698	10.334000	-5.020000
	39.050233	1364.835507	10.326000	-5.110000
	39.153239	1364.391342	10.208000	-8.830000
	39.250245	1364.479484	10.164000	-4.360000
	39.350251	1364.537844	10.350000	-4.610000
	39.450256	1364.603355	10.354000	-4.550000
	39.554262	1364.672444	10.392000	-4.520000
	39.650268	1364.710558	10.348000	-4.780000
	39.750274	1364.736761	10.316000	-4.880000
	39.850279	1364.757009	10.328000	-4.930000
	39.960286	1364.795126	10.294000	-4.780000
	40.052291	1364.805846	10.338000	-5.010000
	40.150297	1364.811801	10.342000	-5.050000
	40.250302	1364.810610	10.320000	-5.110000
	40.400311	1364.814183	10.344000	-5.070000
	40.511317	1364.821329	10.350000	-5.040000
	40.600322	1364.828476	10.326000	-5.040000
	40.700328	1364.827285	10.322000	-5.110000
	40.800333	1364.827285	10.322000	-5.110000
	40.900339	1364.821330	10.268000	-5.150000
	41.010345	1364.835623	10.302000	-4.980000
	41.100351	1364.846343	10.332000	-5.010000
	41.200356	1364.860636	10.348000	-4.980000
	41.300362	1364.865400	10.328000	-5.060000
	41.400368	1364.877312	10.302000	-5.000000
	41.501374	1364.882076	10.318000	-5.060000
	41.600379	1364.873739	10.354000	-5.170000
	41.700385	1364.879694	10.336000	-5.050000
	41.806391	1364.868975	10.322000	-5.190000
	41.900396	1364.870166	10.320000	-5.090000
	42.000402	1364.884460	10.334000	-4.980000
	42.100408	1364.891606	10.388000	-5.040000
	42.200414	1364.908283	10.116000	-4.960000
	42.300419	1364.910665	10.310000	-5.080000
	42.402425	1364.908283	10.350000	-5.120000
	42.499431	1364.886844	10.312000	-5.280000
	42.599437	1364.891609	10.308000	-5.060000
	42.749445	1364.905903	10.356000	-4.980000
	42.853451	1364.889228	10.316000	-5.240000
	42.949457	1364.866599	10.310000	-5.290000
	43.049462	1364.866599	10.310000	-5.290000
	43.149468	1364.861835	10.256000	-5.140000
	43.249474	1364.889233	10.368000	-4.870000
	43.349480	1364.890424	10.320000	-5.090000
	43.449485	1365.052539	10.400000	-3.740000
	43.549491	1364.995370	10.418000	-5.580000
	43.649497	1365.013239	10.306000	-4.950000
	43.749502	1364.982271	10.296000	-5.360000
	43.849508	1364.956068	10.302000	-5.320000
	43.949514	1364.939393	10.308000	-5.240000
	44.049520	1364.939393	10.334000	-5.100000
	44.155526	1364.909617	10.326000	-5.350000
	44.249531	1364.900089	10.314000	-5.180000
	44.349536	1364.888178	10.344000	-5.200000
	44.449543	1364.882223	10.350000	-5.150000
	44.549548	1364.854831	10.342000	-5.330000
	44.649554	1364.871507	10.302000	-4.960000
	44.753560	1364.869125	10.330000	-5.120000
	44.849565	1364.864360	10.358000	-5.140000
	44.949571	1364.854832	10.326000	-5.180000
	45.099579	1364.863170	10.278000	-5.030000
	45.199585	1364.872699	10.344000	-5.020000
	45.299591	1364.866743	10.350000	-5.150000
	45.399597	1364.882228	10.288000	-4.970000
	45.501603	1364.891757	10.326000	-5.020000
	45.599608	1364.891757	10.326000	-5.020000
	45.699614	1364.912007	10.336000	-4.930000
	45.799620	1364.867943	10.386000	-5.470000
	45.899625	1364.873898	10.310000	-5.050000
	45.999631	1364.889383	10.326000	-4.970000
	46.099637	1364.870327	10.374000	-5.260000
	46.200643	1364.847698	10.324000	-5.290000
	46.299648	1364.853654	10.304000	-5.050000
	46.399654	1364.858418	10.354000	-5.060000
	46.501660	1364.866756	10.348000	-5.030000
	46.599665	1364.895345	10.230000	-4.860000
	46.699671	1364.906065	10.334000	-5.010000
	46.799677	1364.898919	10.328000	-5.160000
	46.899683	1364.877480	10.326000	-5.280000
	46.999688	1364.871525	10.316000	-5.150000
	47.099694	1364.888201	10.334000	-4.960000
	47.199700	1364.876291	10.354000	-5.200000
	47.299706	1364.853662	10.342000	-5.290000
	47.399711	1364.827461	10.282000	-5.320000
	47.549720	1364.846519	10.344000	-4.940000
	47.652726	1364.828655	10.330000	-5.250000
	47.749731	1364.882263	10.356000	-4.650000
	47.849737	1364.897748	10.330000	-4.970000
	47.949743	1364.897748	10.330000	-4.970000
	48.050748	1364.891792	10.354000	-5.150000
	48.149754	1364.891792	10.356000	-5.100000
	48.249760	1364.885837	10.340000	-5.150000
	48.349765	1364.884646	10.308000	-5.110000
	48.449771	1364.907279	10.310000	-4.910000
	48.549777	1364.891795	10.340000	-5.230000
	48.650783	1364.875121	10.318000	-5.240000
	48.749788	1364.921582	10.320000	-4.710000
	48.849794	1364.915626	10.346000	-5.150000
	48.949800	1364.908480	10.338000	-5.160000
	49.049806	1364.932304	10.296000	-4.900000
	49.149811	1364.926348	10.338000	-5.150000
	49.255817	1364.894192	10.346000	-5.370000
	49.349823	1364.894192	10.346000	-5.370000
	49.449828	1364.894192	10.310000	-5.100000
	49.559834	1364.904912	10.356000	-5.010000
	49.649840	1364.898956	10.376000	-5.150000
	49.780847	1364.891810	10.298000	-5.160000
	49.849851	1364.885855	10.320000	-5.150000
	49.949857	1364.896575	10.362000	-5.010000
	50.099865	1364.901339	10.332000	-5.060000
	50.199871	1364.896575	10.342000	-5.140000
	50.299877	1364.893002	10.328000	-5.130000
	50.399883	1364.869182	10.292000	-5.300000
	50.499888	1364.856081	10.382000	-5.210000
	50.599894	1364.894200	10.324000	-4.780000
	50.699900	1364.862044	10.326000	-5.370000
	50.799906	1364.873956	10.274000	-5.000000
	50.905911	1364.878720	10.350000	-5.060000
	51.015918	1364.885867	10.396000	-5.040000
	51.099923	1364.894205	10.310000	-5.030000
	51.199928	1364.896587	10.328000	-5.080000
	51.299934	1364.912072	10.336000	-4.970000
	51.399940	1364.922792	10.346000	-5.010000
	51.549949	1364.922792	10.346000	-5.010000
	51.649954	1364.909691	10.338000	-5.210000
	51.749960	1364.915646	10.312000	-5.050000
	51.849966	1364.920411	10.316000	-5.060000
	51.949971	1364.934705	10.322000	-4.980000
	52.049977	1364.848966	10.154000	-5.820000
	52.149983	1364.882320	10.358000	-4.820000
	52.249989	1364.785870	10.536000	-5.910000
	52.349994	1364.806118	10.326000	-4.930000
	52.453000	1364.828750	10.340000	-4.910000
	52.550005	1364.846616	10.350000	-4.950000
	52.650012	1364.850190	10.338000	-5.070000
	52.750017	1364.871630	10.330000	-4.920000
	52.850023	1364.877586	10.324000	-5.050000
	52.950028	1364.881159	10.338000	-5.070000
	53.050034	1364.875204	10.328000	-5.150000
	53.150040	1364.894263	10.302000	-4.940000
	53.300048	1364.906174	10.330000	-5.000000
	53.400054	1364.906174	10.330000	-5.000000
	53.500060	1364.899028	10.322000	-5.160000
	53.600066	1364.901410	10.318000	-5.080000
	53.700071	1364.904983	10.322000	-5.070000
	53.801077	1364.920468	10.350000	-4.970000
	53.900083	1364.932380	10.328000	-5.000000
	54.000089	1364.920469	10.324000	-5.200000
	54.100094	1364.928807	10.314000	-5.030000
	54.200100	1364.935954	10.346000	-5.040000
	54.300106	1364.927617	10.344000	-5.170000
	54.400112	1364.920470	10.316000	-5.160000
	54.509118	1364.928808	10.320000	-5.030000
	54.600123	1364.931191	10.328000	-5.080000
	54.708129	1364.921662	10.344000	-5.180000
	54.806135	1364.913324	10.324000	-5.170000
	54.900140	1364.928810	10.324000	-4.970000
	55.000146	1364.928810	10.324000	-4.970000
	55.100152	1364.941913	10.324000	-4.990000
	55.200157	1364.885939	10.350000	-5.570000
	55.300163	1364.729969	10.516000	-6.410000
	55.400168	1364.725205	10.260000	-5.140000
	55.500175	1364.747835	10.356000	-4.910000
	55.600180	1364.801440	10.372000	-4.650000
	55.700186	1364.724043	10.684000	-5.750000
	55.800191	1364.960148	10.272000	-3.120000
	55.900197	1364.953002	10.374000	-5.160000
	56.000203	1364.941091	10.330000	-5.200000
	56.104209	1364.924416	10.324000	-5.240000
	56.200214	1364.932754	10.326000	-5.030000
	56.300220	1364.923225	10.340000	-5.180000
	56.400226	1364.904169	10.332000	-5.260000
	56.500232	1364.914889	10.312000	-5.010000
	56.600237	1364.941096	10.322000	-4.880000
	56.705244	1364.949434	10.336000	-5.030000
	56.812250	1364.956581	10.340000	-5.040000
	56.950257	1364.956581	10.320000	-5.100000
	57.050263	1364.964920	10.348000	-5.030000
	57.153269	1364.962537	10.320000	-5.120000
	57.250275	1364.961346	10.310000	-5.110000
	57.350280	1364.973258	10.318000	-5.000000
	57.450286	1364.973258	10.318000	-5.000000
	57.553292	1364.980405	10.336000	-5.040000
	57.665298	1364.974450	10.322000	-5.150000
	57.750303	1364.978023	10.320000	-5.070000
	57.850309	1364.980406	10.298000	-5.080000
	57.964315	1364.993509	10.318000	-4.990000
	58.050320	1364.981598	10.324000	-5.200000
	58.155326	1364.980407	10.314000	-5.110000
	58.250332	1365.029254	10.294000	-4.690000
	58.350338	1365.076912	10.296000	-4.700000
	58.450343	1365.093590	10.306000	-4.960000
	58.550349	1365.105504	10.272000	-5.000000
	58.650354	1365.123374	10.296000	-4.950000
	58.750360	1365.131713	10.304000	-5.030000
	58.850366	1365.131713	10.304000	-5.030000
	58.950372	1365.118610	10.234000	-5.210000
	59.053378	1365.157928	10.290000	-4.770000
	59.150383	1365.147207	10.292000	-5.190000
	59.250389	1365.148398	10.306000	-5.090000
	59.350395	1365.149589	10.230000	-5.090000
	59.450400	1365.166269	10.302000	-4.960000
	59.550406	1365.169843	10.296000	-5.070000
	59.651412	1365.156739	10.256000	-5.210000
	59.750418	1365.182951	10.298000	-4.880000
	59.849423	1365.174612	10.288000	-5.170000
	59.949429	1365.196057	10.266000	-4.920000
	60.059435	1365.212737	10.310000	-4.960000
	60.149440	1365.210355	10.310000	-5.120000
	60.249446	1365.250868	10.266000	-4.760000
	60.349452	1365.291382	10.246000	-4.760000
	60.449458	1365.349777	10.314000	-4.610000
	60.599466	1365.337862	10.254000	-5.200000
	60.699472	1365.352161	10.200000	-4.980000
	60.799478	1365.339055	10.200000	-5.210000
	60.899483	1365.353354	10.258000	-4.980000
	61.049492	1365.340248	10.282000	-5.210000
	61.149498	1365.321185	10.272000	-5.260000
	61.249503	1365.335484	10.248000	-4.980000
	61.351509	1365.372425	10.264000	-4.790000
	61.499517	1365.411751	10.238000	-4.770000
	61.599523	1365.418900	10.218000	-5.040000
	61.699529	1365.446309	10.202000	-4.870000
	61.799535	1365.485637	10.220000	-4.770000
	61.899540	1365.520198	10.040000	-4.810000
	62.049549	1365.520198	10.040000	-4.810000
	62.149555	1365.499942	10.210000	-5.270000
	62.249560	1365.502325	10.220000	-5.080000
	62.349566	1365.515434	10.242000	-4.990000
	62.449572	1365.509476	10.264000	-5.150000
	62.549578	1365.492794	10.228000	-5.240000
	62.649583	1365.530931	10.216000	-4.780000
	62.751589	1365.578606	10.216000	-4.700000
	62.850595	1365.611978	10.218000	-4.820000
	62.949600	1365.625088	10.204000	-4.990000
	63.051606	1365.639389	10.202000	-4.980000
	63.149612	1365.648924	10.228000	-5.020000
	63.249618	1365.640582	10.202000	-5.170000
	63.349623	1365.616749	10.280000	-5.300000
	63.499632	1365.627475	10.206000	-5.010000
	63.599638	1365.610791	10.214000	-5.240000
	63.699643	1365.582193	10.202000	-5.340000
	63.851652	1365.589343	10.188000	-5.040000
	63.949657	1365.590535	10.226000	-5.090000
	64.049664	1365.603644	10.214000	-4.990000
	64.149669	1365.632249	10.146000	-4.860000
	64.249675	1365.664430	10.146000	-4.830000
	64.399683	1365.703764	10.192000	-4.770000
	64.499689	1365.720450	10.186000	-4.960000
	64.599695	1365.846856	10.274000	-4.040000
	64.699700	1365.857583	10.188000	-5.010000
	64.849709	1365.854008	10.198000	-5.130000
	64.949715	1365.834938	10.156000	-5.260000
	65.049721	1365.831362	10.144000	-5.130000
	65.149726	1365.848050	10.194000	-4.960000
	65.249732	1365.817063	10.184000	-5.360000
	65.399741	1365.807528	10.170000	-5.180000
	65.499746	1365.807528	10.170000	-5.180000
	65.599752	1365.807528	10.186000	-5.100000
	65.699758	1365.783693	10.174000	-5.300000
	65.799764	1365.772966	10.166000	-5.190000
	65.899769	1365.780118	10.148000	-5.040000
	65.999775	1365.778926	10.190000	-5.110000
	66.102781	1365.842111	10.066000	-4.570000
	66.210787	1365.823042	10.160000	-5.260000
	66.299792	1365.824233	10.190000	-5.090000
	66.399798	1365.815890	10.202000	-5.170000
	66.499804	1365.795630	10.158000	-5.270000
	66.599809	1365.777752	10.186000	-5.250000
	66.749818	1365.761067	10.216000	-5.240000
	66.849823	1365.738424	10.196000	-5.290000
	66.949829	1365.714589	10.168000	-5.300000
	67.049835	1365.745580	10.196000	-4.840000
	67.149841	1365.739621	10.200000	-5.150000
	67.299850	1365.725320	10.188000	-5.220000
	67.399855	1365.725320	10.188000	-5.220000
	67.499861	1365.743198	10.170000	-4.950000
	67.599866	1365.765845	10.188000	-4.910000
	67.699872	1379.743027	0.188000	57.710000
	67.799878	1437.497198	0.056000	76.650000
	67.899884	1448.288578	0.138000	50.250000
	67.999889	1342.662097	0.132000	87.460000
	68.109896	1365.638745	0.140000	67.290000
	68.199901	1397.569555	0.154000	71.450000
	68.299907	1410.096481	0.134000	54.660000
	68.399912	1410.096481	0.134000	54.660000
	68.499918	1468.944862	0.122000	76.630000
	68.599924	1497.216942	0.162000	68.990000
	68.699929	1525.177494	0.142000	68.570000
	68.799935	1564.566249	0.146000	72.550000
	68.899941	1587.181723	0.186000	64.540000
	69.002947	1617.863267	0.150000	69.050000
	69.115953	1644.059729	0.178000	66.430000
	69.199958	1659.749043	0.174000	56.130000
	69.299964	1838.346093	0.142000	80.740000
	69.399970	2097.614276	0.138000	81.350000
	69.499975	2127.285634	0.210000	64.160000
	69.649984	2171.698201	0.204000	70.070000
	69.749990	2224.057203	0.230000	71.800000
	69.849995	2271.225990	0.248000	70.270000
	70.001004	2324.887004	0.228000	71.570000
	70.100009	2350.798893	0.286000	59.550000
	70.200015	2414.519441	0.240000	73.050000
	70.300021	2441.391897	0.364000	59.520000
	70.400027	2461.124958	0.362000	52.130000
	70.500032	2477.289619	0.494000	46.720000
	70.650041	2477.289619	0.494000	46.720000
	70.750047	2474.136414	0.508000	-19.470000
	70.853053	2252.590362	0.456000	-93.250000
	70.950058	2076.863610	0.534000	-92.790000
	71.050064	1935.320724	0.630000	-92.270000
	71.150070	1817.665522	0.774000	-91.770000
	71.250075	1734.545259	0.962000	-90.240000
	71.353081	1681.728969	1.184000	-87.150000
	71.462087	1607.701288	1.314000	-90.000000
	71.550092	1566.747478	1.690000	-85.360000
	71.650098	1566.747478	1.690000	-85.360000
	71.750104	1580.444102	0.198000	54.060000
	71.850110	1614.860698	0.186000	70.600000
	71.950115	1639.780874	0.194000	65.650000
	72.050121	1665.743378	0.184000	66.070000
	72.150127	1686.840576	0.212000	62.120000
	72.250133	1716.307144	0.178000	67.600000
	72.356139	1733.003156	0.238000	56.570000
	72.450144	1745.207165	0.222000	48.580000
	72.550149	1760.791230	0.264000	54.570000
	72.650156	1760.791230	0.264000	54.570000
	72.750161	1780.193680	0.252000	59.310000
	72.850167	1796.985012	0.246000	55.860000
	72.953173	1816.192492	0.262000	58.660000
	73.050178	1834.039734	0.254000	56.800000
	73.150184	1853.057649	0.246000	58.000000
	73.253190	1876.699279	0.284000	62.260000
	73.364196	1893.784896	0.270000	55.030000
	73.450201	1911.062560	0.282000	55.080000
	73.550207	1926.898292	0.304000	52.750000
	73.650213	1945.610084	0.284000	56.530000
	73.750218	1960.755384	0.328000	51.180000
	73.900227	1976.212161	0.330000	51.500000
	74.000233	1989.781577	0.320000	47.910000
	74.100238	2002.835918	0.356000	46.690000
	74.200244	2016.252507	0.340000	47.250000
	74.300250	2031.105104	0.336000	49.760000
	74.450258	2043.732484	0.344000	45.230000
	74.550264	2043.732484	0.344000	45.230000
	74.650270	2054.240228	0.410000	39.970000
	74.750276	2063.977474	0.426000	37.700000
	74.850281	2085.224722	0.310000	57.840000
	74.950287	2106.128723	0.288000	57.250000
	75.050292	2065.396567	0.460000	-81.940000
	75.151299	2078.962085	0.374000	46.720000
	75.254304	1977.661884	0.648000	-90.620000
	75.350310	1874.538063	0.744000	-91.000000
	75.450315	1796.866541	0.858000	-89.600000
	75.550321	1718.503464	1.002000	-89.940000
	75.650327	1659.378998	1.186000	-88.210000
	75.750333	1601.438512	1.406000	-88.330000
	75.900341	1557.851084	1.732000	-86.060000
	76.000347	1557.851084	1.732000	-86.060000
	76.100353	1528.167217	2.092000	-81.730000
	76.200358	1499.827693	2.434000	-81.340000
	76.300364	1476.630122	2.874000	-78.480000
	76.400370	1456.952303	3.398000	-75.790000
	76.500376	1440.717018	4.002000	-72.130000
	76.604382	1427.396460	4.690000	-67.810000
	76.707387	1416.354792	5.444000	-63.240000
	76.800393	1407.371908	6.160000	-57.740000
	76.900398	1399.992137	6.894000	-52.220000
	77.000404	1399.992137	6.894000	-52.220000
	77.100410	1393.924447	7.568000	-46.640000
	77.200416	1388.873376	8.212000	-41.530000
	77.299421	1384.688433	8.730000	-36.560000
	77.399427	1381.378513	9.088000	-30.920000
	77.499433	1378.630928	9.456000	-26.990000
	77.609439	1376.371225	9.628000	-23.390000
	77.707445	1374.405510	9.750000	-21.150000
	77.799450	1372.870487	9.878000	-17.760000
	77.899456	1371.612713	10.020000	-15.530000
	77.999461	1370.573357	10.060000	-13.750000
	78.099467	1369.709155	10.066000	-12.310000
	78.249475	1368.987623	10.096000	-11.130000
	78.349482	1368.403258	10.158000	-9.990000
	78.449487	1367.935218	10.120000	-9.020000
	78.549493	1367.517525	10.184000	-8.600000
	78.699502	1367.214542	10.158000	-7.640000
	78.799507	1366.942638	10.196000	-7.380000
	78.899513	1366.731593	10.142000	-6.870000
	78.999518	1366.563492	10.202000	-6.510000
	79.149527	1366.403755	10.176000	-6.440000
	79.249533	1366.295279	10.182000	-6.010000
	79.349538	1366.295279	10.182000	-6.010000
	79.449544	1366.191579	10.192000	-5.970000
	79.549550	1366.109336	10.170000	-5.790000
	79.649556	1366.058082	10.196000	-5.530000
	79.749561	1365.993721	10.208000	-5.640000
	79.849567	1365.935322	10.168000	-5.590000
	79.999576	1365.912676	10.190000	-5.290000
	80.068580	1365.881687	10.200000	-5.360000
	80.199587	1365.838783	10.196000	-5.460000
	80.299593	1365.824481	10.168000	-5.220000
	80.349596	1365.818521	10.184000	-5.150000
	80.449602	1365.794685	10.194000	-5.300000
	80.599610	1365.786342	10.174000	-5.170000
	80.699616	1365.782767	10.182000	-5.130000
	80.799622	1365.766082	10.200000	-5.240000
	80.899627	1365.758931	10.150000	-5.160000
	81.049636	1365.773234	10.164000	-4.980000
	81.149642	1365.770850	10.204000	-5.120000
	81.249647	1365.743440	10.172000	-5.330000
	81.349653	1365.747015	10.170000	-5.070000
	81.449659	1365.750591	10.190000	-5.070000
	81.599667	1365.756550	10.200000	-5.050000
	81.699673	1365.757742	10.162000	-5.090000
	81.799679	1365.757742	10.180000	-5.100000
	81.899684	1365.757742	10.168000	-5.100000
	82.054693	1365.749399	10.192000	-5.170000
	82.149699	1365.758934	10.154000	-5.020000
	82.249704	1365.758934	10.154000	-5.020000
	82.349710	1365.745825	10.210000	-5.210000
	82.451716	1365.743441	10.176000	-5.120000
	82.549722	1365.731523	10.180000	-5.200000
	82.651727	1365.741058	10.172000	-5.020000
	82.756733	1365.741058	10.186000	-5.100000
	82.899742	1365.732716	10.178000	-5.170000
	82.999747	1365.751786	10.196000	-4.940000
	83.099753	1365.752978	10.192000	-5.090000
	83.199759	1365.742252	10.170000	-5.190000
	83.306765	1365.747019	10.164000	-5.060000
	83.349767	1365.764898	10.222000	-4.950000
	83.499776	1365.749405	10.194000	-5.230000
	83.599782	1365.741062	10.166000	-5.170000
	83.699787	1365.747021	10.168000	-5.050000
	83.799793	1365.754173	10.182000	-5.040000
	83.949801	1365.749405	10.184000	-5.140000
	84.049808	1365.760132	10.170000	-5.010000
	84.149813	1365.768476	10.178000	-5.030000
	84.305822	1365.768476	10.184000	-5.100000
	84.399827	1365.752982	10.172000	-5.230000
	84.499833	1365.770861	10.174000	-4.950000
	84.599839	1365.781588	10.188000	-5.010000
	84.699844	1365.781588	10.188000	-5.010000
	84.799850	1365.776821	10.158000	-5.080000
	84.949859	1365.772054	10.186000	-5.140000
	85.049865	1365.773246	10.186000	-5.090000
	85.149870	1365.774437	10.184000	-5.090000
	85.249876	1365.785165	10.174000	-5.010000
	85.399885	1365.781589	10.188000	-5.130000
	85.499890	1365.779205	10.174000	-5.120000
	85.599896	1365.782781	10.176000	-5.070000
	85.699902	1365.778014	10.174000	-5.140000
	85.849910	1365.785165	10.184000	-5.040000
	85.949916	1365.770863	10.164000	-5.220000
	86.049922	1365.778015	10.158000	-5.040000
	86.149928	1365.792318	10.178000	-4.980000
	86.299936	1365.778016	10.198000	-5.220000
	86.399942	1365.770865	10.166000	-5.160000
	86.499948	1365.778016	10.182000	-5.040000
	86.599953	1365.775633	10.180000	-5.120000
	86.699959	1365.778016	10.202000	-5.080000
	86.849967	1365.773249	10.188000	-5.140000
	86.949973	1365.782784	10.182000	-5.020000
	87.049979	1365.787552	10.196000	-5.060000
	87.149985	1365.785168	10.184000	-5.120000
	87.299993	1365.794703	10.178000	-5.020000
	87.399999	1365.795895	10.210000	-5.090000
	87.500005	1365.791128	10.178000	-5.140000
	87.600010	1365.780401	10.172000	-5.190000
	87.750019	1365.792320	10.174000	-5.000000
	87.850025	1365.800664	10.196000	-5.030000
	87.950030	1365.794705	10.172000	-5.150000
	88.050036	1365.797088	10.166000	-5.080000
	88.200045	1365.806624	10.198000	-5.020000
	88.300050	1365.795897	10.190000	-5.190000
	88.400056	1365.795897	10.190000	-5.190000
	88.500062	1365.791130	10.148000	-5.140000
	88.600068	1365.803049	10.188000	-5.000000
	88.700073	1365.804241	10.182000	-5.090000
	88.800079	1365.794706	10.198000	-5.180000
	88.900085	1365.811393	10.144000	-4.960000
	89.003091	1365.817353	10.194000	-5.050000
	89.115097	1365.814969	10.190000	-5.120000
	89.200102	1365.799475	10.176000	-5.230000
	89.300107	1365.800667	10.196000	-5.090000
	89.400114	1365.791133	10.196000	-5.180000
	89.500119	1365.780406	10.190000	-5.190000
	89.650128	1365.776831	10.186000	-5.130000
	89.758134	1365.793518	10.202000	-4.960000
	89.850139	1365.793518	10.202000	-4.960000
	89.950145	1365.806629	10.146000	-5.080000
	90.100153	1365.816164	10.194000	-5.020000
	90.200159	1365.820932	10.192000	-5.060000
	90.300165	1365.806630	10.192000	-5.220000
	90.400170	1365.817357	10.176000	-5.010000
	90.500176	1365.811398	10.202000	-5.150000
	90.650185	1365.801863	10.182000	-5.180000
	90.750191	1365.789945	10.154000	-5.200000
	90.850196	1365.800672	10.170000	-5.010000
	90.950202	1365.797096	10.178000	-5.130000
	91.100211	1365.795905	10.170000	-5.110000
	91.200216	1365.797096	10.184000	-5.090000
	91.300222	1365.810208	10.190000	-4.990000
	91.400228	1365.810208	10.190000	-4.990000
	91.550236	1365.822129	10.174000	-4.920000
	91.650242	1365.835240	10.190000	-4.990000
	91.750248	1365.820938	10.180000	-5.220000
	91.850254	1365.832858	10.158000	-5.000000
	91.950259	1365.836433	10.180000	-5.070000
	92.100268	1365.830474	10.196000	-5.150000
	92.200274	1365.830474	10.196000	-5.150000
	92.300279	1365.818555	10.168000	-5.200000
	92.400285	1365.823323	10.170000	-5.060000
	92.500291	1365.830475	10.192000	-5.040000
	92.600296	1365.822132	10.194000	-5.170000
	92.700302	1365.829283	10.156000	-5.040000
	92.813309	1365.829283	10.186000	-5.100000
	92.906314	1365.826899	10.180000	-5.120000
	93.000319	1365.816173	10.140000	-5.190000
	93.100325	1365.822132	10.164000	-5.050000
	93.200331	1365.838820	10.184000	-4.960000
	93.360340	1365.835244	10.192000	-5.130000
	93.451345	1365.828093	10.164000	-5.160000
	93.550351	1365.832861	10.206000	-5.060000
	93.651357	1365.824517	10.214000	-5.170000
	93.755363	1365.823326	10.178000	-5.110000
	93.917372	1365.840013	10.192000	-4.960000
	94.000376	1365.837629	10.196000	-5.120000
	94.150385	1365.848357	10.190000	-5.010000
	94.250391	1365.857893	10.162000	-5.020000
	94.350397	1365.862661	10.194000	-5.060000
	94.450402	1365.853126	10.190000	-5.180000
	94.600411	1365.850742	10.158000	-5.120000
	94.701416	1365.854318	10.200000	-5.070000
	94.750419	1365.854318	10.200000	-5.070000
	94.899428	1365.859085	10.196000	-5.060000
	95.013434	1365.863853	10.166000	-5.060000
	95.099439	1365.866237	10.192000	-5.080000
	95.199445	1365.855510	10.168000	-5.190000
	95.299451	1365.859086	10.190000	-5.070000
	95.399457	1365.841208	10.192000	-5.250000
	95.499462	1365.843592	10.168000	-5.080000
	95.599468	1365.850744	10.194000	-5.040000
	95.699474	1365.840017	10.190000	-5.190000
	95.799479	1365.847168	10.156000	-5.040000
	95.899485	1365.853128	10.184000	-5.050000
	96.002491	1365.830483	10.180000	-5.290000
	96.099496	1365.835251	10.190000	-5.060000
	96.199502	1365.826908	10.198000	-5.170000
	96.299508	1365.826908	10.166000	-5.100000
	96.399514	1365.836443	10.180000	-5.020000
	96.499519	1365.835251	10.160000	-5.110000
	96.599525	1365.835251	10.160000	-5.110000
	96.699531	1365.850747	10.178000	-4.970000
	96.799537	1365.836445	10.196000	-5.220000
	96.899542	1365.844789	10.156000	-5.030000
	96.999548	1365.856708	10.196000	-5.000000
	97.099554	1365.837639	10.148000	-5.260000
	97.199560	1365.855519	10.190000	-4.950000
	97.299565	1365.836449	10.176000	-5.260000
	97.399571	1365.840025	10.170000	-5.070000
	97.502577	1365.857905	10.192000	-4.950000
	97.599582	1365.855521	10.176000	-5.120000
	97.699588	1365.851945	10.138000	-5.130000
	97.799594	1365.859097	10.200000	-5.040000
	97.899600	1365.862673	10.162000	-5.070000
	97.999605	1365.876977	10.186000	-4.980000
	98.099611	1365.872209	10.198000	-5.140000
	98.199616	1365.862674	10.170000	-5.180000
	98.349625	1365.867442	10.202000	-5.060000
	98.449631	1365.865058	10.156000	-5.120000
	98.549637	1365.873402	10.178000	-5.030000
	98.649642	1365.873402	10.178000	-5.030000
	98.749648	1365.861483	10.194000	-5.200000
	98.849654	1365.862675	10.144000	-5.090000
	98.949659	1365.872210	10.182000	-5.020000
	99.049665	1365.869827	10.142000	-5.120000
	99.173672	1365.885323	10.182000	-4.970000
	99.249677	1365.897243	10.180000	-5.000000
	99.349682	1365.891283	10.172000	-5.150000
	99.449688	1365.896051	10.166000	-5.060000
	99.549694	1365.896051	10.152000	-5.100000
	99.650700	1365.898435	10.160000	-5.080000
	99.749705	1365.898435	10.168000	-5.100000
	99.849711	1365.894859	10.160000	-5.130000
	99.949717	1365.890091	10.180000	-5.140000
	100.049723	1365.876980	10.164000	-5.210000
	100.149728	1365.894861	10.168000	-4.950000
	100.249734	1365.872215	10.194000	-5.290000
	100.349740	1365.866256	10.160000	-5.150000
	100.449745	1365.878176	10.196000	-5.000000
	100.599754	1365.868640	10.172000	-5.180000
	100.699759	1365.885329	10.162000	-4.960000
	100.799766	1365.885329	10.162000	-4.960000
	100.899771	1365.876985	10.184000	-5.170000
	100.999777	1365.875793	10.170000	-5.110000
	101.099782	1365.884137	10.180000	-5.030000
	101.199788	1365.881753	10.174000	-5.120000
	101.299794	1365.896058	10.162000	-4.980000
	101.399800	1365.878179	10.146000	-5.250000
	101.499805	1365.897252	10.154000	-4.940000
	101.599811	1365.894868	10.180000	-5.120000
	101.699817	1365.894868	10.154000	-5.100000
	101.799822	1365.891292	10.202000	-5.130000
	101.899828	1365.891292	10.164000	-5.100000
	101.999834	1365.911557	10.178000	-4.930000
	102.100840	1365.892487	10.182000	-5.260000
	102.199845	1365.898447	10.164000	-5.050000
	102.299851	1365.899638	10.184000	-5.090000
	102.399857	1365.891295	10.156000	-5.170000
	102.499863	1365.891295	10.156000	-5.170000
	102.599868	1365.885335	10.196000	-5.150000
	102.699874	1365.897255	10.162000	-5.000000
	102.799880	1365.915136	10.172000	-4.950000
	102.899886	1365.900833	10.174000	-5.220000
	102.999891	1365.915137	10.158000	-4.980000
	103.099897	1365.899643	10.188000	-5.230000
	103.199903	1365.906795	10.140000	-5.040000
	103.299908	1365.917523	10.190000	-5.010000
	103.399914	1365.917523	10.162000	-5.100000
	103.499920	1365.931827	10.188000	-4.980000
	103.599926	1365.917524	10.152000	-5.220000
	103.699931	1365.912756	10.184000	-5.140000
	103.805937	1365.898453	10.162000	-5.220000
	103.899943	1365.902029	10.164000	-5.070000
	103.999949	1365.897261	10.184000	-5.140000
	104.099954	1365.888918	10.168000	-5.170000
	104.199960	1365.888918	10.168000	-5.170000
	104.299965	1365.909183	10.178000	-4.930000
	104.399971	1365.900839	10.144000	-5.170000
	104.499977	1365.907991	10.170000	-5.040000
	104.599983	1365.907991	10.190000	-5.100000
	104.699988	1365.916335	10.164000	-5.030000
	104.799994	1365.927064	10.182000	-5.010000
	104.900000	1365.915144	10.162000	-5.200000
	105.000006	1365.912760	10.198000	-5.120000
	105.105011	1365.917528	10.188000	-5.060000
	105.200017	1365.933025	10.168000	-4.970000
	105.300023	1365.931833	10.174000	-5.110000
	105.400029	1365.931833	10.152000	-5.100000
	105.500034	1365.909187	10.202000	-5.290000
	105.600040	1365.903227	10.150000	-5.150000
	105.700046	1365.909187	10.192000	-5.050000
	105.800051	1365.905611	10.150000	-5.130000
	105.900057	1365.924684	10.180000	-4.940000
	106.050066	1365.924684	10.160000	-5.100000
	106.150072	1365.944950	10.162000	-4.930000
	106.250077	1365.931838	10.190000	-5.210000
	106.350083	1365.949719	10.164000	-4.950000
	106.450089	1365.937800	10.194000	-5.200000
	106.550094	1365.937800	10.194000	-5.200000
	106.650100	1365.935416	10.152000	-5.120000
	106.750106	1365.941376	10.200000	-5.050000
	106.850111	1365.930648	10.148000	-5.190000
	106.950117	1365.944953	10.196000	-4.980000
	107.050123	1365.937801	10.176000	-5.160000
	107.150129	1365.962835	10.180000	-4.890000
	107.250134	1365.948532	10.144000	-5.220000
	107.350140	1365.965221	10.184000	-4.960000
	107.455146	1365.959261	10.166000	-5.150000
	107.550151	1365.962837	10.156000	-5.070000
	107.650157	1365.947342	10.158000	-5.230000
	107.750163	1365.964031	10.164000	-4.960000
	107.850169	1365.953303	10.180000	-5.190000
	107.950174	1365.949727	10.136000	-5.130000
	108.063181	1365.958071	10.200000	-5.030000
	108.150186	1365.959264	10.156000	-5.090000
	108.300194	1365.969992	10.180000	-5.010000
	108.400200	1365.950921	10.168000	-5.260000
	108.500206	1365.952113	10.176000	-5.090000
	108.600212	1365.952113	10.176000	-5.090000
	108.700217	1365.939001	10.184000	-5.210000
	108.801223	1365.947346	10.162000	-5.030000
	108.900229	1365.940194	10.180000	-5.160000
	109.000235	1365.952114	10.138000	-5.000000
	109.100240	1365.952114	10.204000	-5.100000
	109.200246	1365.969996	10.164000	-4.950000
	109.300251	1365.971188	10.180000	-5.090000
	109.400258	1365.980725	10.148000	-5.020000
	109.500263	1365.974764	10.196000	-5.150000
	109.600269	1365.971188	10.166000	-5.130000
	109.702274	1365.961652	10.176000	-5.180000
	109.800280	1365.968805	10.136000	-5.040000
	109.900286	1365.972381	10.186000	-5.070000
	110.000292	1365.954501	10.164000	-5.250000
	110.100297	1365.953309	10.198000	-5.110000
	110.200303	1365.948541	10.156000	-5.140000
	110.300309	1365.948541	10.156000	-5.140000
	110.400314	1365.966423	10.196000	-4.950000
	110.504321	1365.950927	10.136000	-5.230000
	110.600326	1365.955696	10.180000	-5.060000
	110.700332	1365.937816	10.168000	-5.250000
	110.800337	1365.955698	10.166000	-4.950000
	110.906343	1365.949738	10.176000	-5.150000
	111.002349	1365.958082	10.144000	-5.030000
	111.100355	1365.954506	10.200000	-5.130000
	111.200360	1365.954506	10.142000	-5.100000
	111.300366	1365.955698	10.202000	-5.090000
	111.400372	1365.953314	10.162000	-5.120000
	111.500378	1365.953314	10.176000	-5.100000
	111.600383	1365.962850	10.150000	-5.020000
	111.700389	1365.966427	10.194000	-5.070000
	111.800395	1365.959275	10.160000	-5.160000
	111.950403	1365.961659	10.192000	-5.080000
	112.050409	1365.958083	10.140000	-5.130000
	112.150414	1365.954507	10.198000	-5.130000
	112.250421	1365.953315	10.150000	-5.110000
	112.349426	1365.950931	10.176000	-5.120000
	112.449432	1365.947355	10.140000	-5.130000
	112.549438	1365.947355	10.140000	-5.130000
	112.649443	1365.953315	10.196000	-5.050000
	112.749449	1365.947355	10.148000	-5.150000
	112.849455	1365.953315	10.174000	-5.050000
	112.949461	1365.949739	10.146000	-5.130000
	113.049466	1365.953315	10.192000	-5.070000
	113.149472	1365.950931	10.162000	-5.120000
	113.249477	1365.960468	10.186000	-5.020000
	113.349483	1365.944972	10.166000	-5.230000
	113.455489	1365.962853	10.186000	-4.950000
	113.549495	1365.955702	10.166000	-5.160000
	113.649500	1365.954509	10.188000	-5.110000
	113.749506	1365.927096	10.154000	-5.330000
	113.849512	1365.943785	10.172000	-4.960000
	113.949518	1365.940209	10.144000	-5.130000
	114.049523	1365.949745	10.190000	-5.020000
	114.149529	1365.960474	10.158000	-5.010000
	114.249535	1365.964050	10.192000	-5.070000
	114.399543	1365.964050	10.152000	-5.100000
	114.499549	1365.964050	10.152000	-5.100000
	114.599555	1365.970010	10.182000	-5.050000
	114.699561	1365.966434	10.172000	-5.130000
	114.799566	1365.972394	10.196000	-5.050000
	114.899572	1365.966434	10.152000	-5.150000
	114.999578	1365.978355	10.170000	-5.000000
	115.099583	1365.968819	10.152000	-5.180000
	115.199589	1365.993854	10.176000	-4.890000
	115.299595	1365.987894	10.160000	-5.150000
	115.399601	1365.990278	10.168000	-5.080000
	115.499606	1366.002199	10.164000	-5.000000
	115.599612	1366.012928	10.166000	-5.010000
	115.699618	1365.996240	10.176000	-5.240000
	115.799623	1366.009353	10.188000	-4.990000
	115.902629	1365.997433	10.148000	-5.200000
	115.999635	1366.005778	10.182000	-5.030000
	116.099640	1366.005778	10.182000	-5.030000
	116.199646	1365.993858	10.152000	-5.200000
	116.299652	1365.992666	10.158000	-5.110000
	116.399658	1365.975978	10.148000	-5.240000
	116.499663	1365.993860	10.178000	-4.950000
	116.599669	1365.992668	10.154000	-5.110000
	116.699675	1365.997436	10.186000	-5.060000
	116.799681	1365.993860	10.146000	-5.130000
	116.899686	1366.004589	10.192000	-5.010000
	116.999692	1366.004589	10.150000	-5.100000
	117.099698	1366.015318	10.176000	-5.010000
	117.199704	1365.991478	10.146000	-5.300000
	117.299709	1366.005784	10.174000	-4.980000
	117.399715	1365.998631	10.164000	-5.160000
	117.499721	1366.006976	10.158000	-5.030000
	117.605727	1366.002208	10.158000	-5.140000
	117.699732	1366.014129	10.192000	-5.000000
	117.799738	1365.998633	10.164000	-5.230000
	117.899744	1366.015323	10.170000	-4.960000
	117.999749	1366.003403	10.172000	-5.200000
	118.099755	1366.014132	10.160000	-5.010000
	118.218762	1366.001020	10.164000	-5.210000
	118.299767	1366.018902	10.166000	-4.950000
	118.399772	1366.004597	10.164000	-5.220000
	118.549781	1366.034402	10.154000	-4.850000
	118.649786	1366.018906	10.160000	-5.230000
	118.749792	1366.032020	10.170000	-4.990000
	118.849798	1366.021291	10.180000	-5.190000
	118.949803	1366.021291	10.142000	-5.100000
	119.049809	1366.003411	10.168000	-5.250000
	119.149815	1366.024870	10.172000	-4.920000
	119.299824	1366.014142	10.174000	-5.190000
	119.399829	1366.014142	10.174000	-5.190000
	119.499835	1366.014142	10.160000	-5.100000
	119.599841	1365.997454	10.164000	-5.240000
	119.699846	1366.003414	10.166000	-5.050000
	119.799852	1365.991494	10.152000	-5.200000
	119.899858	1366.012953	10.150000	-4.920000
	119.999864	1366.002225	10.168000	-5.190000
	120.099869	1366.023683	10.184000	-4.920000
	120.199875	1366.010571	10.180000	-5.210000
	120.299881	1366.026069	10.162000	-4.970000
	120.399887	1366.014149	10.162000	-5.200000
	120.499892	1366.021301	10.182000	-5.040000
	120.599898	1365.997462	10.156000	-5.300000
	120.699903	1366.018920	10.176000	-4.920000
	120.801909	1366.004616	10.170000	-5.220000
	120.899915	1366.012961	10.182000	-5.030000
	120.999921	1366.002233	10.168000	-5.190000
	121.099926	1366.002233	10.168000	-5.190000
	121.199932	1366.011770	10.178000	-5.020000
	121.299938	1366.007001	10.160000	-5.140000
	121.399944	1366.029653	10.174000	-4.910000
	121.499949	1366.017732	10.164000	-5.200000
	121.599955	1366.021309	10.190000	-5.070000
	121.699961	1366.012964	10.174000	-5.170000
	121.799966	1366.026078	10.186000	-4.990000
	121.899972	1366.012965	10.164000	-5.210000
	121.999978	1366.021310	10.170000	-5.030000
	122.099984	1366.010582	10.152000	-5.190000
	122.199989	1366.008198	10.178000	-5.120000
	122.303995	1366.004622	10.162000	-5.130000
	122.400001	1366.014158	10.176000	-5.020000
	122.500007	1366.009390	10.154000	-5.140000
	122.600012	1366.016543	10.182000	-5.040000
	122.700018	1366.011775	10.156000	-5.140000
	122.850027	1366.011775	10.156000	-5.140000
	122.950032	1366.001046	10.156000	-5.190000
	123.050038	1366.017736	10.192000	-4.960000
	123.150044	1366.007008	10.138000	-5.190000
	123.250050	1366.016545	10.186000	-5.020000
	123.350055	1366.016545	10.164000	-5.100000
	123.450061	1366.016545	10.198000	-5.100000
	123.550066	1366.024890	10.164000	-5.030000
	123.650073	1366.048733	10.164000	-4.900000
	123.750078	1366.036813	10.148000	-5.200000
	123.851084	1366.041581	10.168000	-5.060000
	123.950089	1366.055887	10.132000	-4.980000
	124.050095	1366.045159	10.186000	-5.190000
	124.150101	1366.046351	10.146000	-5.090000
	124.252107	1366.048735	10.172000	-5.080000
	124.350112	1366.043967	10.158000	-5.140000
	124.450118	1366.030854	10.182000	-5.210000
	124.550124	1366.038007	10.150000	-5.040000
	124.650129	1366.040391	10.166000	-5.080000
	124.800138	1366.040391	10.166000	-5.080000
	124.900144	1366.054697	10.148000	-4.980000
	125.000150	1366.034433	10.166000	-5.270000
	125.101155	1366.055892	10.152000	-4.920000
	125.200161	1366.045164	10.186000	-5.190000
	125.300167	1366.047548	10.146000	-5.080000
	125.400172	1366.029667	10.162000	-5.250000
	125.500178	1366.040397	10.184000	-5.010000
	125.600184	1366.023708	10.176000	-5.240000
	125.700190	1366.035630	10.158000	-5.000000
	125.800195	1366.030861	10.164000	-5.140000
	125.900201	1366.060667	10.168000	-4.850000
	126.000207	1366.053514	10.178000	-5.160000
	126.106213	1366.070205	10.160000	-4.960000
	126.204218	1366.060668	10.138000	-5.180000
	126.300224	1366.071398	10.168000	-5.010000
	126.400229	1366.074974	10.176000	-5.070000
	126.550238	1366.074974	10.140000	-5.100000
	126.654244	1366.074974	10.176000	-5.100000
	126.750250	1366.066630	10.150000	-5.170000
	126.851255	1366.069014	10.174000	-5.080000
	126.950261	1366.069014	10.144000	-5.100000
	127.050267	1366.061861	10.194000	-5.160000
	127.200275	1366.067822	10.162000	-5.050000
	127.300281	1366.065438	10.186000	-5.120000
	127.400287	1366.064246	10.142000	-5.110000
	127.500293	1366.058285	10.172000	-5.150000
	127.600298	1366.061862	10.154000	-5.070000
	127.700304	1366.038021	10.186000	-5.300000
	127.850313	1366.048751	10.170000	-5.010000
	127.960319	1366.048751	10.170000	-5.010000
	128.100327	1366.046366	10.196000	-5.120000
	128.200333	1366.066634	10.152000	-4.930000
	128.300338	1366.064249	10.194000	-5.120000
	128.400344	1366.069018	10.132000	-5.060000
	128.500350	1366.051137	10.156000	-5.250000
	128.600356	1366.055906	10.168000	-5.060000
	128.704361	1366.055906	10.156000	-5.100000
	128.800367	1366.072596	10.168000	-4.960000
	128.900373	1366.072596	10.168000	-4.960000
	129.000378	1366.076173	10.186000	-5.070000
	129.100384	1366.072596	10.144000	-5.130000
	129.200390	1366.077365	10.174000	-5.060000
	129.300395	1366.073789	10.158000	-5.130000
	129.400401	1366.070212	10.182000	-5.130000
	129.500407	1366.084519	10.160000	-4.980000
	129.600413	1366.073790	10.146000	-5.050000
	129.799424	1366.066638	10.192000	-5.160000
	129.899430	1366.078560	10.134000	-5.000000
	129.999435	1366.071407	10.180000	-5.160000
	130.099441	1366.077368	10.134000	-5.050000
	130.249450	1366.072599	10.194000	-5.140000
	130.349455	1366.072599	10.146000	-5.100000
	130.455462	1366.063063	10.188000	-5.180000
	130.550467	1366.071408	10.148000	-5.030000
	130.653473	1366.071408	10.172000	-5.100000
	130.799481	1366.083329	10.136000	-5.000000
	130.899487	1366.078561	10.190000	-5.140000
	130.999493	1366.073793	10.138000	-5.140000
	131.099498	1366.080945	10.182000	-5.040000
	131.249507	1366.082138	10.142000	-5.090000
	131.349513	1366.089291	10.174000	-5.040000
	131.449519	1366.089291	10.142000	-5.100000
	131.549524	1366.076178	10.168000	-5.210000
	131.649530	1366.101215	10.150000	-4.890000
	131.749536	1366.088102	10.170000	-5.210000
	131.899544	1366.109562	10.170000	-4.920000
	131.999550	1366.100025	10.134000	-5.180000
	132.099555	1366.117908	10.144000	-4.950000
	132.199561	1366.100027	10.152000	-5.250000
	132.303567	1366.104796	10.130000	-5.060000
	132.452576	1366.097643	10.160000	-5.160000
	132.549582	1366.105988	10.164000	-5.030000
	132.649587	1366.091683	10.184000	-5.220000
	132.749593	1366.104797	10.184000	-4.990000
	132.849598	1366.090492	10.170000	-5.220000
	132.949604	1366.097645	10.166000	-5.040000
	133.099613	1366.104798	10.132000	-5.040000
	133.199618	1366.111952	10.172000	-5.040000
	133.299624	1366.110759	10.140000	-5.110000
	133.399630	1366.102415	10.168000	-5.170000
	133.499636	1366.102415	10.168000	-5.170000
	133.599641	1366.120298	10.156000	-4.950000
	133.699647	1366.101225	10.164000	-5.260000
	133.799653	1366.103609	10.162000	-5.080000
	133.899659	1366.113147	10.142000	-5.020000
	133.999664	1366.114339	10.186000	-5.090000
	134.099670	1366.108378	10.150000	-5.150000
	134.199676	1366.110762	10.168000	-5.080000
	134.299682	1366.129838	10.140000	-4.940000
	134.399687	1366.119109	10.182000	-5.190000
	134.500693	1366.141762	10.154000	-4.910000
	134.599699	1366.121496	10.182000	-5.270000
	134.699704	1366.119112	10.132000	-5.120000
	134.799710	1366.113151	10.164000	-5.150000
	134.899716	1366.123881	10.142000	-5.010000
	134.999722	1366.119113	10.174000	-5.140000
	135.149730	1366.119113	10.174000	-5.140000
	135.249736	1366.134612	10.160000	-4.970000
	135.349741	1366.114346	10.174000	-5.270000
	135.449747	1366.138192	10.170000	-4.900000
	135.549753	1366.129847	10.134000	-5.170000
	135.651759	1366.127462	10.180000	-5.120000
	135.750764	1366.123886	10.136000	-5.130000
	135.849770	1366.128655	10.154000	-5.060000
	135.949776	1366.144154	10.144000	-4.970000
	136.049781	1366.146538	10.180000	-5.080000
	136.157788	1366.139385	10.138000	-5.160000
	136.249793	1366.150115	10.200000	-5.010000
	136.349799	1366.151307	10.130000	-5.090000
	136.465806	1366.135810	10.192000	-5.230000
	136.549810	1366.148924	10.118000	-4.990000
	136.649816	1366.135811	10.174000	-5.210000
	136.749822	1366.139387	10.154000	-5.070000
	136.899830	1366.132235	10.174000	-5.160000
	136.999836	1366.148926	10.164000	-4.960000
	137.099842	1366.122700	10.148000	-5.320000
	137.199847	1366.117932	10.186000	-5.140000
	137.299853	1366.120316	10.130000	-5.080000
	137.399859	1366.108395	10.178000	-5.200000
	137.499865	1366.122702	10.144000	-4.980000
	137.649873	1366.117933	10.160000	-5.140000
	137.749879	1366.117933	10.160000	-5.140000
	137.849885	1366.123894	10.190000	-5.050000
	137.949890	1366.127470	10.150000	-5.070000
	138.049896	1366.133431	10.176000	-5.050000
	138.149902	1366.138200	10.116000	-5.060000
	138.249907	1366.126279	10.184000	-5.200000
	138.349913	1366.127471	10.166000	-5.090000
	138.449919	1366.106014	10.134000	-5.280000
	138.499922	1366.125089	10.182000	-4.940000
	138.649930	1366.120321	10.158000	-5.140000
	138.749936	1366.128666	10.186000	-5.030000
	138.849942	1366.141781	10.144000	-4.990000
	138.949947	1366.139396	10.178000	-5.120000
	139.049953	1366.150127	10.154000	-5.010000
	139.150959	1366.139397	10.130000	-5.190000
	139.249965	1366.139397	10.196000	-5.100000
	139.349970	1366.134629	10.142000	-5.140000
	139.457976	1366.134629	10.142000	-5.140000
	139.549982	1366.144166	10.188000	-5.020000
	139.649988	1366.152512	10.136000	-5.030000
	139.749993	1366.148935	10.178000	-5.130000
	139.849999	1366.158473	10.154000	-5.020000
	139.950005	1366.147744	10.160000	-5.190000
	140.050010	1366.148936	10.182000	-5.090000
	140.150016	1366.145359	10.114000	-5.130000
	140.250022	1366.141785	10.138000	-5.270000
	140.500036	1366.150131	10.152000	-5.030000
	140.640044	1366.134633	10.144000	-5.230000
	140.750051	1366.160864	10.172000	-4.880000
	140.850056	1366.134638	10.138000	-5.320000
	140.950062	1366.138214	10.174000	-5.070000
	141.052068	1366.121525	10.130000	-5.240000
	141.200076	1366.139408	10.154000	-4.950000
	141.301082	1366.126295	10.138000	-5.210000
	141.400088	1366.121526	10.174000	-5.140000
	141.500093	1366.122719	10.128000	-5.090000
	141.600099	1366.121526	10.156000	-5.110000
	141.701105	1366.135833	10.166000	-4.980000
	141.800110	1366.137025	10.146000	-5.090000
	141.900116	1366.137025	10.146000	-5.090000
	142.000122	1366.141794	10.170000	-5.060000
	142.100128	1366.134641	10.134000	-5.160000
	142.200133	1366.126296	10.154000	-5.170000
	142.300139	1366.145372	10.138000	-4.940000
	142.400145	1366.126299	10.158000	-5.260000
	142.508151	1366.144182	10.158000	-4.950000
	142.600156	1366.121533	10.148000	-5.290000
	142.700162	1366.126301	10.148000	-5.060000
	142.800168	1366.114380	10.152000	-5.200000
	142.900174	1366.127495	10.166000	-4.990000
	143.000179	1366.122726	10.134000	-5.140000
	143.100185	1366.117957	10.180000	-5.140000
	143.250194	1366.125111	10.148000	-5.040000
	143.350199	1366.119150	10.166000	-5.150000
	143.450205	1366.138226	10.158000	-4.940000
	143.550210	1366.133457	10.122000	-5.140000
	143.650217	1366.156111	10.160000	-4.910000
	143.750222	1366.165648	10.130000	-5.020000
	143.850228	1366.152535	10.146000	-5.210000
	143.950233	1366.165650	10.150000	-4.990000
	144.100242	1366.163265	10.134000	-5.120000
	144.200248	1366.170419	10.174000	-5.040000
	144.300253	1366.170419	10.146000	-5.100000
	144.400259	1366.173995	10.166000	-5.070000
	144.500265	1366.175188	10.152000	-5.090000
	144.600271	1366.154921	10.150000	-5.270000
	144.750279	1366.171613	10.144000	-4.960000
	144.850285	1366.168037	10.146000	-5.130000
	144.950291	1366.168037	10.146000	-5.130000
	145.050296	1366.181151	10.162000	-4.990000
	145.150302	1366.172806	10.132000	-5.170000
	145.250308	1366.166845	10.152000	-5.150000
	145.350314	1366.178768	10.170000	-5.000000
	145.454319	1366.170423	10.146000	-5.170000
	145.550325	1366.168038	10.162000	-5.120000
	145.650331	1366.158501	10.132000	-5.180000
	145.750337	1366.151348	10.178000	-5.160000
	145.850342	1366.182349	10.154000	-4.840000
	145.950348	1366.174003	10.134000	-5.170000
	146.050354	1366.178772	10.186000	-5.060000
	146.152359	1366.171619	10.142000	-5.160000
	146.250365	1366.159698	10.178000	-5.200000
	146.350371	1366.165659	10.156000	-5.050000
	146.450377	1366.148969	10.150000	-5.240000
	146.550382	1366.162084	10.162000	-4.990000
	146.650388	1366.162084	10.138000	-5.100000
	146.750394	1366.168045	10.172000	-5.050000
	146.850399	1366.175198	10.170000	-5.040000
	147.050411	1366.175198	10.170000	-5.040000
	147.150416	1366.176390	10.132000	-5.090000
	147.249422	1366.177583	10.194000	-5.090000
	147.349428	1366.200237	10.166000	-4.910000
	147.449434	1366.200237	10.134000	-5.100000
	147.549439	1366.206198	10.182000	-5.050000
	147.649445	1366.203813	10.128000	-5.120000
	147.749451	1366.196660	10.174000	-5.160000
	147.849456	1366.202621	10.144000	-5.050000
	147.949462	1366.188315	10.150000	-5.220000
	148.049468	1366.190700	10.168000	-5.080000
	148.149474	1366.188315	10.128000	-5.120000
	148.249479	1366.165665	10.146000	-5.290000
	148.349485	1366.175203	10.162000	-5.020000
	148.449491	1366.170434	10.142000	-5.140000
	148.553497	1366.159705	10.172000	-5.190000
	148.599499	1366.159705	10.172000	-5.190000
	148.749508	1366.175204	10.138000	-4.970000
	148.849514	1366.158514	10.152000	-5.240000
	148.949520	1366.182360	10.164000	-4.900000
	149.051525	1366.174015	10.136000	-5.170000
	149.149531	1366.162093	10.162000	-5.200000
	149.249537	1366.172824	10.150000	-5.010000
	149.350543	1366.157326	10.154000	-5.230000
	149.450548	1366.171633	10.162000	-4.980000
	149.549554	1366.164480	10.142000	-5.160000
	149.650559	1366.163288	10.158000	-5.110000
	149.749565	1366.183557	10.144000	-4.930000
	149.850571	1366.172827	10.140000	-5.190000
	149.949577	1366.181173	10.188000	-5.030000
	150.059583	1366.177596	10.134000	-5.130000
	150.149588	1366.177596	10.166000	-5.100000
	150.249594	1366.194288	10.168000	-4.960000
	150.349599	1366.194288	10.168000	-4.960000
	150.449605	1366.174022	10.146000	-5.270000
	150.549611	1366.185944	10.170000	-5.000000
	150.649617	1366.183560	10.144000	-5.120000
	150.749622	1366.163294	10.142000	-5.270000
	150.849628	1366.178793	10.170000	-4.970000
	150.949634	1366.185947	10.130000	-5.040000
	151.049640	1366.181178	10.172000	-5.140000
	151.149645	1366.194293	10.182000	-4.990000
	151.249651	1366.178795	10.138000	-5.230000
	151.349657	1366.185948	10.170000	-5.040000
	151.449663	1366.187141	10.130000	-5.090000
	151.551668	1366.178795	10.174000	-5.170000
	151.649674	1366.189526	10.170000	-5.010000
	151.749680	1366.179988	10.122000	-5.180000
	151.849685	1366.177604	10.162000	-5.120000
	151.949691	1366.183565	10.150000	-5.050000
	152.049697	1366.175220	10.160000	-5.170000
	152.149703	1366.188335	10.170000	-4.990000
	152.249708	1366.188335	10.170000	-4.990000
	152.349714	1366.181181	10.146000	-5.160000
	152.449719	1366.176413	10.180000	-5.140000
	152.552725	1366.188335	10.162000	-5.000000
	152.699734	1366.189528	10.138000	-5.090000
	152.799740	1366.207412	10.156000	-4.950000
	152.899745	1366.200259	10.124000	-5.160000
	152.999751	1366.184761	10.146000	-5.230000
	153.099757	1366.215762	10.154000	-4.840000
	153.199762	1366.201456	10.134000	-5.220000
	153.299768	1366.199071	10.184000	-5.120000
	153.399774	1366.207417	10.162000	-5.030000
	153.499780	1366.191919	10.154000	-5.230000
	153.599785	1366.207419	10.196000	-4.970000
	153.699791	1366.215765	10.144000	-5.030000
	153.799797	1366.213380	10.164000	-5.120000
	153.903803	1366.227688	10.146000	-4.980000
	153.999808	1366.208613	10.146000	-5.260000
	154.099814	1366.208613	10.146000	-5.260000
	154.199820	1366.227691	10.176000	-4.940000
	154.299826	1366.224114	10.106000	-5.130000
	154.399831	1366.218153	10.150000	-5.150000
	154.499837	1366.227691	10.164000	-5.020000
	154.599843	1366.222922	10.136000	-5.140000
	154.699848	1366.224114	10.188000	-5.090000
	154.799854	1366.240807	10.130000	-4.960000
	154.899860	1366.221732	10.180000	-5.260000
	154.999866	1366.222924	10.180000	-5.090000
	155.099871	1366.220540	10.136000	-5.120000
	155.199877	1366.216963	10.158000	-5.130000
	155.299883	1366.237233	10.156000	-4.930000
	155.361886	1366.214582	10.138000	-5.290000
	155.499894	1366.234851	10.168000	-4.930000
	155.599900	1366.225313	10.156000	-5.180000
	155.699905	1366.236044	10.172000	-5.010000
	155.799911	1366.243198	10.148000	-5.040000
	155.899917	1366.218162	10.148000	-5.310000
	155.999923	1366.242010	10.166000	-4.900000
	156.149931	1366.242010	10.136000	-5.100000
	156.249937	1366.245587	10.190000	-5.070000
	156.349943	1366.247971	10.136000	-5.080000
	156.449948	1366.247971	10.136000	-5.310000
	156.549954	1366.222935	10.180000	-5.310000
	156.649960	1366.243205	10.162000	-4.930000
	156.749966	1366.236052	10.134000	-5.160000
	156.849971	1366.221745	10.170000	-5.220000
	156.949977	1366.246785	10.154000	-4.890000
	157.049983	1366.215789	10.136000	-5.360000
	157.149989	1366.233674	10.190000	-4.950000
	157.249994	1366.244405	10.138000	-5.010000
	157.350000	1366.225330	10.160000	-5.260000
	157.450006	1366.238445	10.170000	-4.990000
	157.550011	1366.234869	10.146000	-5.130000
	157.655017	1366.219370	10.156000	-5.230000
	157.750023	1366.234870	10.168000	-4.970000
	157.850029	1366.227717	10.146000	-5.160000
	157.950034	1366.246794	10.170000	-4.940000
	158.050040	1366.249179	10.112000	-5.080000
	158.150046	1366.237257	10.178000	-5.200000
	158.250051	1366.237257	10.178000	-5.200000
	158.350057	1366.250372	10.158000	-4.990000
	158.450063	1366.242027	10.134000	-5.170000
	158.550068	1366.246796	10.164000	-5.060000
	158.650074	1366.251565	10.142000	-5.060000
	158.750080	1366.234874	10.140000	-5.240000
	158.850086	1366.251567	10.166000	-4.960000
	158.952092	1366.249182	10.140000	-5.120000
	159.050097	1366.237260	10.164000	-5.200000
	159.150103	1366.240837	10.166000	-5.070000
	159.252109	1366.237260	10.142000	-5.130000
	159.350114	1366.234876	10.168000	-5.120000
	159.450120	1366.234876	10.142000	-5.100000
	159.550126	1366.236068	10.168000	-5.090000
	159.650131	1366.249183	10.182000	-4.990000
	159.750137	1366.242030	10.138000	-5.160000
	159.900146	1366.256338	10.168000	-4.980000
	160.000152	1366.270646	10.126000	-4.980000
	160.100157	1366.270646	10.126000	-4.980000
	160.200163	1366.249186	10.170000	-5.280000
	160.300169	1366.270649	10.152000	-4.920000
	160.400174	1366.261111	10.136000	-5.180000
	160.500180	1366.256342	10.162000	-5.140000
	160.600186	1366.265881	10.152000	-5.020000
	160.700191	1366.240845	10.150000	-5.310000
	160.800197	1366.257537	10.172000	-4.960000
	160.900203	1366.240846	10.142000	-5.240000
	161.000209	1366.227732	10.176000	-5.210000
	161.100214	1366.251579	10.154000	-4.900000
	161.200220	1366.250387	10.144000	-5.110000
	161.300226	1366.242042	10.184000	-5.170000
	161.400231	1366.264697	10.156000	-4.910000
	161.505238	1366.250390	10.162000	-5.220000
	161.600243	1366.259928	10.160000	-5.020000
	161.700249	1366.257544	10.126000	-5.120000
	161.800254	1366.257544	10.126000	-5.120000
	161.900260	1366.240853	10.152000	-5.240000
	162.000266	1366.257546	10.176000	-4.960000
	162.100272	1366.256353	10.120000	-5.110000
	162.200277	1366.243239	10.186000	-5.210000
	162.300283	1366.264702	10.166000	-4.920000
	162.400289	1366.250395	10.142000	-5.220000
	162.500295	1366.262318	10.174000	-5.000000
	162.600300	1366.264703	10.124000	-5.080000
	162.700306	1366.251588	10.170000	-5.210000
	162.800312	1366.269474	10.146000	-4.950000
	162.900317	1366.246822	10.144000	-5.290000
	163.000323	1366.249206	10.190000	-5.080000
	163.105329	1366.264707	10.132000	-4.970000
	163.200335	1366.257553	10.142000	-5.160000
	163.300340	1366.265900	10.146000	-5.030000
	163.400346	1366.261130	10.120000	-5.140000
	163.500351	1366.261130	10.120000	-5.140000
	163.600358	1366.259938	10.164000	-5.110000
	163.700363	1366.269477	10.140000	-5.020000
	163.800369	1366.256362	10.118000	-5.210000
	163.900374	1366.270670	10.176000	-4.980000
	164.000380	1366.282594	10.122000	-5.000000
	164.100386	1366.268287	10.152000	-5.220000
	164.200392	1366.279018	10.158000	-5.010000
	164.300397	1366.275441	10.112000	-5.130000
	164.400403	1366.267095	10.170000	-5.170000
	164.500409	1366.277826	10.128000	-5.010000
	164.600415	1366.265904	10.150000	-5.200000
	164.706420	1366.288559	10.172000	-4.910000
	164.799426	1366.276637	10.114000	-5.200000
	164.899432	1366.277829	10.168000	-5.090000
	164.999437	1366.292137	10.152000	-4.980000
	165.099443	1366.281407	10.130000	-5.190000
	165.199449	1366.281407	10.130000	-5.190000
	165.299455	1366.275446	10.174000	-5.150000
	165.399460	1366.290946	10.128000	-4.970000
	165.499466	1366.273063	10.152000	-5.250000
	165.599472	1366.289756	10.152000	-4.960000
	165.699478	1366.280218	10.138000	-5.180000
	165.799483	1366.271872	10.150000	-5.170000
	165.899489	1366.290950	10.142000	-4.940000
	165.999495	1366.279027	10.126000	-5.200000
	166.099500	1366.290951	10.160000	-5.000000
	166.199506	1366.295720	10.144000	-5.060000
	166.301512	1366.289759	10.168000	-5.150000
	166.399518	1366.311222	10.166000	-4.920000
	166.499523	1366.294531	10.156000	-5.240000
	166.599529	1366.296915	10.158000	-5.080000
	166.699535	1366.296915	10.110000	-5.100000
	166.799541	1366.294531	10.154000	-5.120000
	166.899546	1366.302877	10.162000	-5.030000
	166.999552	1366.302877	10.162000	-5.030000
	167.099557	1366.282609	10.142000	-5.270000
	167.199563	1366.298110	10.176000	-4.970000
	167.300569	1366.292149	10.128000	-5.150000
	167.399575	1366.281418	10.154000	-5.190000
	167.499580	1366.302881	10.148000	-4.920000
	167.599586	1366.308843	10.116000	-5.050000
	167.699592	1366.301689	10.160000	-5.160000
	167.799598	1366.324345	10.156000	-4.910000
	167.899603	1366.305269	10.138000	-5.260000
	168.004609	1366.317193	10.152000	-5.000000
	168.099615	1366.330309	10.132000	-4.990000
	168.199620	1366.306464	10.146000	-5.300000
	168.299626	1366.318388	10.162000	-5.000000
	168.399632	1366.314811	10.136000	-5.130000
	168.499638	1366.320773	10.174000	-5.050000
	168.599643	1366.343429	10.124000	-4.910000
	168.749652	1366.329122	10.128000	-5.220000
	168.849658	1366.329122	10.128000	-5.220000
	168.949663	1366.350586	10.166000	-4.920000
	169.049669	1366.324356	10.032000	-5.320000
	169.149675	1366.317202	10.118000	-5.160000
	169.249681	1366.327934	10.130000	-5.010000
	169.349686	1366.316011	10.140000	-5.200000
	169.449692	1366.333897	10.160000	-4.950000
	169.549698	1366.345821	10.114000	-5.000000
	169.649704	1366.310055	10.142000	-5.400000
	169.749709	1366.330326	10.150000	-4.930000
	169.849715	1366.313634	10.124000	-5.240000
	169.949720	1366.307672	10.158000	-5.150000
	170.049726	1366.321981	10.136000	-4.980000
	170.149732	1366.298136	10.130000	-5.300000
	170.249738	1366.304098	10.164000	-5.050000
	170.349743	1366.311252	10.128000	-5.040000
	170.454750	1366.301714	10.166000	-5.180000
	170.549755	1366.326755	10.160000	-4.890000
	170.649761	1366.307679	10.126000	-5.260000
	170.749766	1366.323180	10.168000	-4.970000
	170.849772	1366.320795	10.128000	-5.120000
	170.949778	1366.320795	10.174000	-5.100000
	171.049783	1366.321988	10.136000	-5.090000
	171.149789	1366.323180	10.136000	-5.090000
	171.299798	1366.336296	10.168000	-4.990000
	171.399804	1366.339873	10.132000	-5.070000
	171.499809	1366.327950	10.152000	-5.200000
	171.599815	1366.341067	10.168000	-4.990000
	171.699821	1366.341067	10.168000	-4.990000
	171.799826	1366.337490	10.114000	-5.130000
	171.899832	1366.313645	10.164000	-5.300000
	171.999838	1366.327954	10.142000	-4.980000
	172.099844	1366.296956	10.134000	-5.360000
	172.199849	1366.314842	10.184000	-4.950000
	172.299855	1366.325573	10.128000	-5.010000
	172.399861	1366.312458	10.170000	-5.210000
	172.499866	1366.319612	10.162000	-5.040000
	172.599872	1366.305305	10.128000	-5.220000
	172.699878	1366.317229	10.168000	-5.000000
	172.799883	1366.323191	10.122000	-5.050000
	172.903890	1366.301730	10.146000	-5.280000
	172.999895	1366.325579	10.138000	-4.900000
	173.099901	1366.320809	10.138000	-5.140000
	173.199906	1366.335118	10.168000	-4.980000
	173.299912	1366.338695	10.140000	-5.070000
	173.399918	1366.326772	10.154000	-5.200000
	173.499924	1366.326772	10.154000	-5.200000
	173.599929	1366.349429	10.148000	-4.910000
	173.699935	1366.327968	10.140000	-5.280000
	173.799941	1366.343469	10.186000	-4.970000
	173.899947	1366.355393	10.126000	-5.000000
	173.999952	1366.329164	10.170000	-5.320000
	174.099958	1366.351820	10.150000	-4.910000
	174.199964	1366.342282	10.140000	-5.180000
	174.299969	1366.337512	10.182000	-5.140000
	174.399975	1366.336320	10.138000	-5.110000
	174.499981	1366.318436	10.164000	-5.250000
	174.605987	1366.330360	10.152000	-5.000000
	174.699992	1366.326783	10.124000	-5.130000
	174.799998	1366.331552	10.176000	-5.060000
	174.900003	1366.331552	10.126000	-5.100000
	175.000010	1366.313668	10.154000	-5.250000
	175.100015	1366.323207	10.148000	-5.020000
	175.200021	1366.316053	10.138000	-5.160000
	175.300026	1366.316053	10.138000	-5.160000
	175.400032	1366.327977	10.162000	-5.000000
	175.500038	1366.333939	10.126000	-5.050000
	175.600044	1366.318439	10.162000	-5.230000
	175.700049	1366.320824	10.158000	-5.080000
	175.800055	1366.316055	10.138000	-5.140000
	175.900061	1366.320824	10.152000	-5.060000
	176.000067	1366.325593	10.114000	-5.060000
	176.100072	1366.316055	10.172000	-5.180000
	176.205078	1366.327979	10.158000	-5.000000
	176.300084	1366.325594	10.140000	-5.120000
	176.400089	1366.333941	10.164000	-5.030000
	176.500095	1366.324402	10.132000	-5.180000
	176.600101	1366.314864	10.150000	-5.180000
	176.700107	1366.335135	10.156000	-4.930000
	176.800112	1366.327981	10.120000	-5.160000
	176.900118	1366.323212	10.156000	-5.140000
	177.000124	1366.332751	10.128000	-5.020000
	177.150132	1366.323213	10.152000	-5.180000
	177.250138	1366.330367	10.140000	-5.040000
	177.350144	1366.314867	10.138000	-5.230000
	177.450150	1366.330368	10.158000	-4.970000
	177.550155	1366.325599	10.118000	-5.140000
	177.650161	1366.322022	10.160000	-5.130000
	177.750167	1366.331561	10.156000	-5.020000
	177.900175	1366.320830	10.136000	-5.190000
	178.000181	1366.335139	10.160000	-4.980000
	178.100187	1366.344678	10.122000	-5.020000
	178.201192	1366.332755	10.142000	-5.200000
	178.300198	1366.351834	10.154000	-4.940000
	178.400204	1366.351834	10.154000	-4.940000
	178.500210	1366.349450	10.136000	-5.120000
	178.600215	1366.345873	10.148000	-5.130000
	178.700221	1366.369722	10.132000	-4.900000
	178.800227	1366.358991	10.138000	-5.190000
	178.900232	1366.370915	10.164000	-5.000000
	179.000238	1366.351838	10.116000	-5.260000
	179.100244	1366.358993	10.148000	-5.040000
	179.200250	1366.344685	10.126000	-5.220000
	179.301255	1366.336339	10.166000	-5.170000
	179.400261	1366.362573	10.150000	-4.880000
	179.500267	1366.349458	10.140000	-5.210000
	179.608273	1366.357804	10.152000	-5.030000
	179.700278	1366.369729	10.112000	-5.000000
	179.800284	1366.353036	10.154000	-5.240000
	179.900290	1366.369731	10.154000	-4.960000
	180.000296	1366.353038	10.138000	-5.240000
	180.100301	1366.367347	10.172000	-4.980000
	180.250310	1366.356616	10.136000	-5.190000
	180.350316	1366.343501	10.136000	-5.210000
	180.450321	1366.343501	10.136000	-5.210000
	180.550327	1366.348270	10.162000	-5.060000
	180.650332	1366.336347	10.118000	-5.200000
	180.750339	1366.350656	10.160000	-4.980000
	180.850344	1366.359003	10.138000	-5.030000
	180.950350	1366.341119	10.158000	-5.250000
	181.050355	1366.360198	10.164000	-4.940000
	181.150361	1366.356621	10.130000	-5.130000
	181.250367	1366.350659	10.152000	-5.150000
	181.350373	1366.363776	10.140000	-4.990000
	181.450378	1366.357814	10.148000	-5.150000
	181.550384	1366.366161	10.146000	-5.030000
	181.650390	1366.361391	10.126000	-5.140000
	181.754396	1366.354237	10.158000	-5.160000
	181.850401	1366.367354	10.148000	-4.990000
	181.950407	1366.361392	10.140000	-5.150000
	182.050413	1366.373316	10.148000	-5.000000
	182.151419	1366.379278	10.134000	-5.050000
	182.255424	1366.379278	10.134000	-5.050000
	182.355430	1366.385241	10.172000	-5.050000
	182.449435	1366.386433	10.116000	-5.090000
	182.549441	1366.360203	10.148000	-5.320000
	182.649447	1366.376897	10.162000	-4.960000
	182.749453	1366.354243	10.132000	-5.290000
	182.849458	1366.345897	10.148000	-5.170000
	182.949464	1366.364976	10.118000	-4.940000
	183.049470	1366.355437	10.160000	-5.180000
	183.149476	1366.380480	10.156000	-4.890000
	183.249481	1366.367364	10.132000	-5.210000
	183.353487	1366.366172	10.166000	-5.110000
	183.449492	1366.382866	10.124000	-4.960000
	183.549499	1366.367366	10.148000	-5.230000
	183.649504	1366.384060	10.164000	-4.960000
	183.749510	1366.380483	10.126000	-5.130000
	183.853516	1366.393600	10.162000	-4.990000
	183.965522	1366.393600	10.162000	-4.990000
	184.049527	1366.409102	10.112000	-4.970000
	184.149533	1366.388832	10.156000	-5.270000
	184.249538	1366.395987	10.154000	-5.040000
	184.349544	1366.379294	10.152000	-5.240000
	184.449550	1366.386449	10.182000	-5.040000
	184.549556	1366.390026	10.128000	-5.070000
	184.649561	1366.390026	10.160000	-5.100000
	184.749567	1366.398373	10.134000	-5.030000
	184.851573	1366.368566	10.126000	-5.350000
	184.949578	1366.369758	10.168000	-5.090000
	185.049584	1366.376913	10.126000	-5.040000
	185.149590	1366.363797	10.150000	-5.210000
	185.249596	1366.385262	10.128000	-4.920000
	185.349601	1366.379300	10.122000	-5.150000
	185.455607	1366.375723	10.144000	-5.130000
	185.549613	1366.375723	10.110000	-5.100000
	185.649619	1366.375723	10.110000	-5.100000
	185.749624	1366.379300	10.158000	-5.070000
	185.849630	1366.391224	10.144000	-5.000000
	185.949636	1366.375724	10.154000	-5.230000
	186.049642	1366.400767	10.138000	-4.890000
	186.149647	1366.388843	10.122000	-5.200000
	186.249653	1366.398383	10.162000	-5.020000
	186.353659	1366.409115	10.132000	-5.010000
	186.449664	1366.395999	10.146000	-5.210000
	186.549670	1366.415079	10.130000	-4.940000
	186.649676	1366.397193	10.142000	-5.250000
	186.749681	1366.399578	10.164000	-5.080000
	186.849687	1366.398386	10.124000	-5.110000
	186.952693	1366.401963	10.170000	-5.070000
	187.056699	1366.416273	10.140000	-4.980000
	187.149704	1366.391234	10.130000	-5.310000
	187.249710	1366.409121	10.178000	-4.950000
	187.399719	1366.409121	10.178000	-4.950000
	187.499724	1366.409121	10.120000	-5.100000
	187.599730	1366.406736	10.168000	-5.120000
	187.699736	1366.398390	10.118000	-5.170000
	187.799742	1366.372159	10.124000	-5.320000
	187.899747	1366.390046	10.138000	-4.950000
	187.999753	1366.391239	10.118000	-5.090000
	188.099759	1366.396008	10.166000	-5.060000
	188.199764	1366.399586	10.124000	-5.070000
	188.315771	1366.422243	10.132000	-4.910000
	188.399776	1366.393628	10.130000	-5.340000
	188.500782	1366.398398	10.162000	-5.060000
	188.599787	1366.388859	10.120000	-5.180000
	188.699793	1366.397206	10.162000	-5.030000
	188.799799	1366.431790	10.138000	-4.810000
	188.899805	1366.431790	10.138000	-4.810000
	189.049813	1366.412712	10.140000	-5.260000
	189.149819	1366.422252	10.142000	-5.020000
	189.249825	1366.401982	10.120000	-5.270000
	189.349830	1366.415099	10.170000	-4.990000
	189.449836	1366.412715	10.126000	-5.120000
	189.549842	1366.421062	10.150000	-5.030000
	189.650847	1366.421062	10.120000	-5.100000
	189.749853	1366.425832	10.140000	-5.060000
	189.850859	1366.440142	10.128000	-4.980000
	189.962865	1366.437757	10.156000	-5.120000
	190.049870	1366.437757	10.156000	-5.120000
	190.149876	1366.424640	10.134000	-5.210000
	190.249882	1366.412717	10.168000	-5.200000
	190.349887	1366.429412	10.152000	-4.960000
	190.449893	1366.411526	10.132000	-5.250000
	190.549899	1366.427029	10.148000	-4.970000
	190.649905	1366.401990	10.132000	-5.310000
	190.749910	1366.419877	10.144000	-4.950000
	190.858916	1366.424647	10.134000	-5.060000
	190.949922	1366.424647	10.168000	-5.100000
	191.049927	1366.424647	10.168000	-5.100000
	191.149933	1366.417492	10.114000	-5.160000
	191.249939	1366.423455	10.154000	-5.050000
	191.349945	1366.424647	10.134000	-5.090000
	191.449950	1366.400800	10.154000	-5.300000
	191.549956	1366.401993	10.128000	-5.090000
	191.649962	1366.400800	10.174000	-5.110000
	191.749968	1366.409148	10.138000	-5.030000
	191.859974	1366.397224	10.162000	-5.200000
	191.949979	1366.410341	10.128000	-4.990000
	192.049984	1366.407956	10.118000	-5.120000
	192.149991	1366.407956	10.118000	-5.120000
	192.249996	1366.425844	10.140000	-4.950000
	192.350002	1366.416305	10.106000	-5.180000
	192.450007	1366.419882	10.168000	-5.070000
	192.550013	1366.423459	10.132000	-5.070000
	192.650019	1366.409151	10.136000	-5.220000
	192.750025	1366.434194	10.128000	-4.890000
	192.850030	1366.404386	10.144000	-5.350000
	192.950036	1366.409156	10.144000	-5.060000
	193.052042	1366.421080	10.122000	-5.000000
	193.150048	1366.412734	10.156000	-5.170000
	193.250053	1366.433006	10.158000	-4.930000
	193.350059	1366.421083	10.116000	-5.200000
	193.450065	1366.425852	10.160000	-5.060000
	193.550070	1366.446125	10.130000	-4.930000
	193.650076	1366.433009	10.142000	-5.210000
	193.751082	1366.455667	10.156000	-4.910000
	193.850088	1366.449705	10.112000	-5.150000
	193.950093	1366.441358	10.160000	-5.170000
	194.100102	1366.452091	10.118000	-5.010000
	194.200108	1366.447321	10.134000	-5.140000
	194.302114	1366.447321	10.154000	-5.100000
	194.400119	1366.423474	10.112000	-5.300000
	194.500125	1366.423474	10.112000	-5.300000
	194.600131	1366.415127	10.166000	-5.170000
	194.700136	1366.419897	10.108000	-5.060000
	194.800142	1366.418704	10.146000	-5.110000
	194.900147	1366.436592	10.118000	-4.950000
	195.000154	1366.427053	10.154000	-5.180000
	195.100159	1366.437785	10.132000	-5.010000
	195.205165	1366.430631	10.122000	-5.160000
	195.300170	1366.448518	10.164000	-4.950000
	195.400176	1366.458058	10.120000	-5.020000
	195.500182	1366.435403	10.140000	-5.290000
	195.600188	1366.460447	10.152000	-4.890000
	195.700193	1366.460447	10.152000	-4.890000
	195.800199	1366.443754	10.138000	-5.240000
	195.900205	1366.441369	10.166000	-5.120000
	196.008211	1366.452101	10.138000	-5.010000
	196.106216	1366.440177	10.152000	-5.200000
	196.200222	1366.449717	10.156000	-5.020000
	196.300228	1366.443755	10.126000	-5.150000
	196.400233	1366.458065	10.158000	-4.980000
	196.500239	1366.459257	10.148000	-5.090000
	196.600245	1366.436603	10.140000	-5.290000
	196.702251	1366.440180	10.150000	-5.070000
	196.800256	1366.422294	10.108000	-5.250000
	196.900262	1366.421102	10.158000	-5.110000
	197.000268	1366.435412	10.120000	-4.980000
	197.103274	1366.427065	10.140000	-5.170000
	197.200279	1366.446145	10.148000	-4.940000
	197.319286	1366.447338	10.124000	-5.090000
	197.400290	1366.441376	10.168000	-5.150000
	197.550299	1366.441376	10.168000	-5.150000
	197.650305	1366.462841	10.124000	-4.920000
	197.750310	1366.452110	10.146000	-5.190000
	197.850317	1366.459265	10.154000	-5.040000
	197.950322	1366.440186	10.134000	-5.260000
	198.050328	1366.450919	10.176000	-5.010000
	198.150333	1366.452111	10.114000	-5.090000
	198.250339	1366.467614	10.148000	-4.970000
	198.350345	1366.461652	10.136000	-5.150000
	198.400348	1366.447343	10.168000	-5.220000
	198.551356	1366.447343	10.168000	-5.220000
	198.650362	1366.467616	10.134000	-4.930000
	198.750368	1366.434231	10.138000	-5.380000
	198.850374	1366.450926	10.144000	-4.960000
	198.950379	1366.447349	10.112000	-5.130000
	199.050385	1366.448541	10.156000	-5.090000
	199.150391	1366.462852	10.148000	-4.980000
	199.250396	1366.461659	10.130000	-5.110000
	199.354403	1366.466429	10.146000	-5.060000
	199.450408	1366.478354	10.122000	-5.000000
	199.550414	1366.460468	10.124000	-5.250000
	199.650419	1366.466431	10.150000	-5.050000
	199.750425	1366.466431	10.128000	-5.100000
	199.849431	1366.456891	10.158000	-5.180000
	199.949437	1366.468816	10.156000	-5.000000
	200.049442	1366.468816	10.156000	-5.000000
	200.149448	1366.458085	10.118000	-5.190000
	200.249454	1366.447353	10.150000	-5.190000
	200.349459	1366.455700	10.144000	-5.030000
	200.450465	1366.450931	10.112000	-5.140000
	200.549471	1366.453315	10.146000	-5.080000
	200.649477	1366.468818	10.128000	-4.970000
	200.749482	1366.461664	10.138000	-5.160000
	200.849488	1366.467626	10.170000	-5.050000
	200.949494	1366.477166	10.116000	-5.020000
	201.049500	1366.454511	10.150000	-5.290000
	201.149505	1366.475977	10.132000	-4.920000
	201.249511	1366.472400	10.112000	-5.130000
	201.356517	1366.468822	10.146000	-5.130000
	201.449522	1366.479555	10.142000	-5.010000
	201.549528	1366.461669	10.118000	-5.250000
	201.649534	1366.461669	10.118000	-5.250000
	201.752540	1366.470016	10.172000	-5.030000
	201.849545	1366.465246	10.114000	-5.140000
	201.949551	1366.459284	10.138000	-5.150000
	202.049557	1366.477172	10.134000	-4.950000
	202.149562	1366.462863	10.144000	-5.220000
	202.254568	1366.478366	10.146000	-4.970000
	202.364574	1366.458096	10.104000	-5.270000
	202.449579	1366.460481	10.160000	-5.080000
	202.549585	1366.464058	10.118000	-5.070000
	202.649591	1366.452134	10.128000	-5.200000
	202.749597	1366.471215	10.150000	-4.940000
	202.849602	1366.467637	10.112000	-5.130000
	202.999611	1366.459290	10.150000	-5.170000
	203.099617	1366.471215	10.138000	-5.000000
	203.199622	1366.473600	10.094000	-5.080000
	203.299628	1366.461676	10.162000	-5.200000
	203.399634	1366.473601	10.144000	-5.000000
	203.499640	1366.478371	10.108000	-5.060000
	203.599645	1366.466447	10.138000	-5.200000
	203.749654	1366.484335	10.140000	-4.950000
	203.849659	1366.489105	10.110000	-5.060000
	203.951665	1366.489105	10.110000	-5.060000
	204.049671	1366.468834	10.138000	-5.270000
	204.149677	1366.483145	10.136000	-4.980000
	204.250682	1366.481952	10.112000	-5.110000
	204.349688	1366.461681	10.142000	-5.270000
	204.449694	1366.477184	10.170000	-4.970000
	204.549700	1366.479569	10.120000	-5.080000
	204.649705	1366.461683	10.154000	-5.250000
	204.749711	1366.475994	10.174000	-4.980000
	204.849717	1366.486726	10.106000	-5.010000
	204.953722	1366.460494	10.128000	-5.320000
	205.049728	1366.477190	10.162000	-4.960000
	205.153734	1366.466458	10.092000	-5.190000
	205.249740	1366.471228	10.172000	-5.060000
	205.349745	1366.499850	10.138000	-4.860000
	205.449751	1366.499850	10.138000	-4.860000
	205.549757	1366.485541	10.106000	-5.220000
	205.649763	1366.471232	10.168000	-5.220000
	205.749768	1366.483157	10.142000	-5.000000
	205.849774	1366.472425	10.120000	-5.190000
	205.949780	1366.467655	10.180000	-5.140000
	206.049785	1366.490314	10.132000	-4.910000
	206.152791	1366.478390	10.126000	-5.200000
	206.249797	1366.486737	10.168000	-5.030000
	206.349802	1366.510589	10.130000	-4.900000
	206.451808	1366.507012	10.128000	-5.130000
	206.549814	1366.498665	10.136000	-5.170000
	206.649820	1366.511783	10.124000	-4.990000
	206.749825	1366.495089	10.120000	-5.240000
	206.849831	1366.478395	10.160000	-5.240000
	206.949837	1366.497476	10.142000	-4.940000
	207.049842	1366.495091	10.100000	-5.120000
	207.149848	1366.490321	10.144000	-5.140000
	207.249854	1366.495091	10.152000	-5.060000
	207.399863	1366.508209	10.120000	-4.990000
	207.499868	1366.489130	10.140000	-5.260000
	207.607874	1366.503441	10.158000	-4.980000
	207.699880	1366.509403	10.100000	-5.050000
	207.799885	1366.493902	10.132000	-5.230000
	207.899891	1366.497479	10.150000	-5.070000
	207.999897	1366.511790	10.110000	-4.980000
	208.149906	1366.511790	10.110000	-4.980000
	208.249911	1366.503443	10.124000	-5.170000
	208.349917	1366.509405	10.148000	-5.050000
	208.449923	1366.521331	10.112000	-5.000000
	208.549928	1366.510599	10.124000	-5.190000
	208.649934	1366.518946	10.152000	-5.030000
	208.749940	1366.541606	10.124000	-4.910000
	208.849946	1366.534451	10.100000	-5.160000
	208.949951	1366.509410	10.150000	-5.310000
	209.049957	1366.523721	10.156000	-4.980000
	209.149962	1366.529684	10.128000	-5.050000
	209.249969	1366.515374	10.132000	-5.220000
	209.350974	1366.527300	10.168000	-5.000000
	209.449980	1366.545189	10.112000	-4.950000
	209.549985	1366.533264	10.128000	-5.200000
	209.649991	1366.536842	10.142000	-5.070000
	209.749997	1366.536842	10.142000	-5.070000
	209.850003	1366.561887	10.126000	-4.890000
	209.951008	1366.540423	10.118000	-5.280000
	210.052014	1366.533268	10.142000	-5.160000
	210.150020	1366.544001	10.152000	-5.010000
	210.250026	1366.564276	10.118000	-4.930000
	210.350031	1366.545196	10.138000	-5.260000
	210.450037	1366.528502	10.162000	-5.240000
	210.552043	1366.545198	10.152000	-4.960000
	210.650048	1366.536850	10.128000	-5.170000
	210.750054	1366.523733	10.154000	-5.210000
	210.850060	1366.540430	10.144000	-4.960000
	210.953066	1366.548778	10.124000	-5.030000
	211.050071	1366.530891	10.128000	-5.250000
	211.150077	1366.533276	10.148000	-5.080000
	211.250083	1366.554743	10.150000	-4.920000
	211.350089	1366.549973	10.104000	-5.140000
	211.450094	1366.549973	10.104000	-5.140000
	211.550100	1366.529701	10.138000	-5.270000
	211.650105	1366.551168	10.152000	-4.920000
	211.750112	1366.559516	10.112000	-5.030000
	211.854117	1366.539244	10.124000	-5.270000
	211.951123	1366.547592	10.152000	-5.030000
	212.050128	1366.551170	10.142000	-5.070000
	212.150134	1366.552363	10.114000	-5.090000
	212.250140	1366.542823	10.142000	-5.180000
	212.350146	1366.552363	10.138000	-5.020000
	212.454152	1366.565482	10.118000	-4.990000
	212.550157	1366.545210	10.106000	-5.270000
	212.650163	1366.533285	10.140000	-5.200000
	212.750168	1366.567873	10.154000	-4.810000
	212.861175	1366.573836	10.134000	-5.050000
	212.950180	1366.563103	10.122000	-5.190000
	213.050186	1366.563103	10.122000	-5.190000
	213.150191	1366.546408	10.144000	-5.240000
	213.250197	1366.548793	10.140000	-5.080000
	213.350203	1366.553564	10.104000	-5.060000
	213.450209	1366.539254	10.136000	-5.220000
	213.550214	1366.557143	10.160000	-4.950000
	213.650220	1366.563106	10.118000	-5.050000
	213.760226	1366.540449	10.142000	-5.290000
	213.850232	1366.539257	10.146000	-5.110000
	213.950237	1366.546412	10.114000	-5.040000
	214.050243	1366.529718	10.114000	-5.240000
	214.150249	1366.538065	10.158000	-5.030000
	214.300257	1366.546413	10.112000	-5.030000
	214.400263	1366.524949	10.128000	-5.280000
	214.500268	1366.524949	10.128000	-5.280000
	214.600275	1366.540453	10.142000	-4.970000
	214.700280	1366.559535	10.118000	-4.940000
	214.800286	1366.535686	10.108000	-5.300000
	214.900291	1366.539264	10.138000	-5.070000
	215.000297	1366.553575	10.116000	-4.980000
	215.100303	1366.542842	10.100000	-5.190000
	215.210310	1366.555961	10.154000	-4.990000
	215.300314	1366.576236	10.150000	-4.930000
	215.400320	1366.560733	10.106000	-5.230000
	215.500326	1366.539269	10.134000	-5.280000
	215.600332	1366.557158	10.150000	-4.950000
	215.750340	1366.553580	10.098000	-5.130000
	215.850346	1366.535693	10.142000	-5.250000
	215.950352	1366.545234	10.152000	-5.020000
	216.050357	1366.553582	10.120000	-5.030000
	216.150363	1366.548812	10.130000	-5.140000
	216.300372	1366.555967	10.152000	-5.040000
	216.400377	1366.563123	10.118000	-5.040000
	216.500383	1366.541658	10.102000	-5.280000
	216.600389	1366.540466	10.166000	-5.110000
	216.750397	1366.566704	10.114000	-4.880000
	216.850403	1366.538086	10.094000	-5.340000
	216.950409	1366.544049	10.162000	-5.050000
	217.051414	1366.567901	10.112000	-4.900000
	217.199423	1366.557169	10.094000	-5.190000
	217.299429	1366.553591	10.144000	-5.130000
	217.399435	1366.573866	10.144000	-4.930000
	217.499440	1366.561941	10.088000	-5.200000
	217.649449	1366.550016	10.144000	-5.200000
	217.749454	1366.566713	10.138000	-4.960000
	217.849460	1366.560750	10.094000	-5.150000
	217.949466	1366.551210	10.146000	-5.180000
	218.049472	1366.555980	10.156000	-5.060000
	218.199480	1366.564328	10.110000	-5.030000
	218.299486	1366.554788	10.122000	-5.180000
	218.399492	1366.563136	10.152000	-5.030000
	218.549500	1366.579833	10.118000	-4.960000
	218.649506	1366.558368	10.132000	-5.280000
	218.749512	1366.559561	10.162000	-5.090000
	218.852518	1366.588185	10.126000	-4.860000
	218.949523	1366.566721	10.110000	-5.280000
	219.099532	1366.566721	10.110000	-5.280000
	219.199537	1366.558373	10.158000	-5.170000
	219.299543	1366.571492	10.124000	-4.990000
	219.399549	1366.557182	10.094000	-5.220000
	219.499555	1366.550027	10.138000	-5.160000
	219.608561	1366.565530	10.156000	-4.970000
	219.699566	1366.565530	10.114000	-5.100000
	219.799572	1366.544066	10.134000	-5.280000
	219.902578	1366.564341	10.126000	-4.930000
	219.949580	1366.583423	10.110000	-4.940000
	220.099589	1366.583423	10.110000	-4.940000
	220.199594	1366.558381	10.120000	-5.310000
	220.299600	1366.559574	10.174000	-5.090000
	220.399606	1366.571500	10.108000	-5.000000
	220.499612	1366.559575	10.140000	-5.200000
	220.599617	1366.554805	10.158000	-5.140000
	220.699623	1366.572694	10.126000	-4.950000
	220.799629	1366.558384	10.104000	-5.220000
	220.906635	1366.560769	10.152000	-5.080000
	220.999640	1366.573888	10.156000	-4.990000
	221.099646	1366.576273	10.100000	-5.080000
	221.199652	1366.559578	10.140000	-5.240000
	221.299657	1366.579853	10.132000	-4.930000
	221.449666	1366.579853	10.110000	-5.100000
	221.549672	1366.569120	10.140000	-5.190000
	221.649678	1366.581046	10.156000	-5.000000
	221.749683	1366.597743	10.130000	-4.960000
	221.849689	1366.579856	10.114000	-5.250000
	221.999698	1366.584626	10.154000	-5.060000
	222.099703	1366.591782	10.142000	-5.040000
	222.199709	1366.596552	10.100000	-5.060000
	222.299715	1366.581049	10.146000	-5.230000
	222.449723	1366.595361	10.150000	-4.980000
	222.549729	1366.597746	10.102000	-5.080000
	222.649735	1366.590591	10.134000	-5.160000
	222.749741	1366.604903	10.174000	-4.980000
	222.899749	1366.621600	10.148000	-4.960000
	222.999755	1366.595365	10.114000	-5.320000
	223.099761	1366.584632	10.176000	-5.190000
	223.199766	1366.607293	10.144000	-4.910000
	223.349775	1366.602523	10.096000	-5.140000
	223.449780	1366.589405	10.146000	-5.210000
	223.549786	1366.589405	10.146000	-5.210000
	223.649792	1366.607295	10.150000	-4.950000
	223.749798	1366.607295	10.098000	-5.100000
	223.849803	1366.602524	10.138000	-5.140000
	223.949809	1366.607295	10.176000	-5.060000
	224.049815	1366.619221	10.116000	-5.000000
	224.149821	1366.597756	10.096000	-5.280000
	224.253827	1366.585831	10.142000	-5.200000
	224.349832	1366.598950	10.142000	-4.990000
	224.449838	1366.587024	10.106000	-5.200000
	224.549843	1366.572714	10.146000	-5.220000
	224.649849	1366.590604	10.146000	-4.950000
	224.799858	1366.590604	10.146000	-4.950000
	224.899864	1366.602530	10.098000	-5.000000
	224.999869	1366.595375	10.128000	-5.160000
	225.099875	1366.597760	10.160000	-5.080000
	225.199881	1366.600145	10.124000	-5.080000
	225.299886	1366.592990	10.108000	-5.160000
	225.399892	1366.585835	10.154000	-5.160000
	225.499898	1366.607303	10.140000	-4.920000
	225.599904	1366.614458	10.094000	-5.040000
	225.707910	1366.603725	10.126000	-5.190000
	225.799915	1366.603725	10.126000	-5.190000
	225.899921	1366.618037	10.156000	-4.980000
	225.999927	1366.628771	10.094000	-5.010000
	226.099932	1366.608498	10.134000	-5.270000
	226.199938	1366.603728	10.150000	-5.140000
	226.299943	1366.620425	10.124000	-4.960000
	226.400949	1366.602537	10.098000	-5.250000
	226.499955	1366.591804	10.158000	-5.190000
	226.606961	1366.609694	10.140000	-4.950000
	226.699966	1366.601346	10.096000	-5.170000
	226.799972	1366.601346	10.096000	-5.170000
	226.899978	1366.581074	10.136000	-5.270000
	226.999984	1366.612084	10.146000	-4.840000
	227.099989	1366.616855	10.086000	-5.060000
	227.199995	1366.603737	10.110000	-5.210000
	227.300001	1366.620434	10.156000	-4.960000
	227.400007	1366.641903	10.112000	-4.920000
	227.501012	1366.615667	10.112000	-5.320000
	227.614019	1366.615667	10.168000	-5.100000
	227.700024	1366.628787	10.130000	-4.990000
	227.800029	1366.628787	10.130000	-4.990000
	227.900035	1366.606129	10.100000	-5.290000
	228.000041	1366.594203	10.124000	-5.200000
	228.100047	1366.612093	10.168000	-4.950000
	228.200052	1366.629983	10.112000	-4.950000
	228.300058	1366.604941	10.114000	-5.310000
	228.400064	1366.615675	10.146000	-5.010000
	228.508070	1366.638336	10.102000	-4.910000
	228.600075	1366.608523	10.092000	-5.350000
	228.700081	1366.608523	10.148000	-5.100000
	228.800086	1366.632377	10.132000	-4.900000
	228.900092	1366.638341	10.096000	-5.050000
	229.000098	1366.633570	10.154000	-5.140000
	229.150106	1366.658618	10.146000	-4.890000
	229.250113	1366.664581	10.120000	-5.050000
	229.350118	1366.640730	10.104000	-5.300000
	229.450124	1366.632382	10.166000	-5.170000
	229.600132	1366.649080	10.120000	-4.960000
	229.715139	1366.637154	10.086000	-5.200000
	229.800144	1366.616881	10.142000	-5.270000
	229.900149	1366.644313	10.152000	-4.870000
	230.050158	1366.649084	10.086000	-5.060000
	230.150164	1366.622849	10.126000	-5.320000
	230.250170	1366.640739	10.150000	-4.950000
	230.350175	1366.649087	10.102000	-5.030000
	230.500184	1366.626429	10.096000	-5.290000
	230.600190	1366.616889	10.152000	-5.180000
	230.700195	1366.640743	10.142000	-4.900000
	230.800201	1366.647899	10.126000	-5.040000
	230.900207	1366.647899	10.126000	-5.040000
	231.000213	1366.628818	10.110000	-5.260000
	231.100218	1366.628818	10.138000	-5.100000
	231.200224	1366.643130	10.142000	-4.980000
	231.300230	1366.639552	10.114000	-5.130000
	231.402236	1366.619279	10.130000	-5.270000
	231.506241	1366.644326	10.128000	-4.890000
	231.600247	1366.663410	10.112000	-4.940000
	231.700253	1366.661024	10.086000	-5.120000
	231.800258	1366.638366	10.142000	-5.290000
	231.900264	1366.638366	10.164000	-5.100000
	232.050272	1366.663414	10.138000	-4.890000
	232.150278	1366.669377	10.112000	-5.050000
	232.250284	1366.655066	10.104000	-5.220000
	232.300287	1366.641948	10.146000	-5.210000
	232.450295	1366.650296	10.146000	-5.030000
	232.550301	1366.669380	10.108000	-4.940000
	232.650307	1366.655069	10.084000	-5.220000
	232.750312	1366.634795	10.134000	-5.270000
	232.850318	1366.651493	10.142000	-4.960000
	232.952324	1366.659842	10.120000	-5.030000
	233.050330	1366.659842	10.120000	-5.030000
	233.150335	1366.661034	10.094000	-5.090000
	233.250341	1366.645531	10.134000	-5.230000
	233.400350	1366.656265	10.154000	-5.010000
	233.500355	1366.676541	10.126000	-4.930000
	233.600361	1366.658653	10.076000	-5.250000
	233.700367	1366.640764	10.130000	-5.250000
	233.800373	1366.856871	10.750000	-3.290000
	233.900378	1366.877150	9.992000	-4.930000
	234.000384	1366.884307	9.970000	-5.040000
	234.100390	1366.866416	9.992000	-5.250000
	234.150393	1366.869994	10.036000	-5.070000
	234.250398	1366.898625	10.026000	-4.860000
	234.400407	1366.929643	9.990000	-4.840000
	234.500412	1366.908173	9.994000	-5.280000
	234.550416	1366.881932	10.008000	-5.320000
	234.699424	1366.881932	10.024000	-5.100000
	234.799430	1366.910563	10.014000	-4.860000
	234.899436	1366.929651	9.980000	-4.940000
	234.999441	1366.929651	9.980000	-4.940000
	235.099447	1366.918915	9.986000	-5.190000
	235.202453	1366.899831	10.008000	-5.260000
	235.299459	1366.892674	10.028000	-5.160000
	235.399464	1366.909375	9.982000	-4.960000
	235.499470	1366.905796	9.942000	-5.130000
	235.599475	1366.879556	10.008000	-5.320000
	235.699481	1366.889099	10.032000	-5.020000
	235.799487	1366.914151	10.014000	-4.890000
	235.900493	1366.918922	9.988000	-5.060000
	235.999498	1366.909380	9.974000	-5.180000
	236.099504	1366.902223	10.008000	-5.160000
	236.208510	1366.905801	10.024000	-5.070000
	236.299516	1366.923695	10.010000	-4.950000
	236.399521	1366.930853	9.988000	-5.040000
	236.549530	1366.902226	9.986000	-5.340000
	236.599533	1366.889106	10.032000	-5.210000
	236.749541	1366.909386	10.026000	-4.930000
	236.849547	1366.927280	10.006000	-4.950000
	236.953553	1366.918930	9.984000	-5.170000
	237.049559	1366.902231	10.016000	-5.240000
	237.149564	1366.889110	10.024000	-5.210000
	237.249570	1366.908197	10.008000	-4.940000
	237.349576	1366.929670	9.976000	-4.920000
	237.449581	1366.916549	9.988000	-5.210000
	237.549587	1366.908199	10.022000	-5.170000
	237.649593	1366.920128	10.018000	-5.000000
	237.799602	1366.930864	9.982000	-5.010000
	237.899607	1366.911780	9.980000	-5.260000
	237.999613	1366.909394	10.022000	-5.120000
	238.101619	1366.920130	10.032000	-5.010000
	238.199624	1366.938024	10.006000	-4.950000
	238.299630	1366.959498	9.978000	-4.920000
	238.399636	1366.959498	9.978000	-4.920000
	238.499641	1366.928486	10.036000	-5.090000
	238.649650	1366.928486	10.036000	-5.090000
	238.749656	1366.949959	10.010000	-4.920000
	238.849661	1366.932067	9.978000	-5.250000
	238.949667	1366.916561	10.004000	-5.230000
	239.049673	1366.921332	10.016000	-5.060000
	239.149679	1366.922525	9.994000	-5.090000
	239.249684	1366.907019	10.014000	-5.230000
	239.349690	1366.923720	10.030000	-4.960000
	239.450696	1366.948772	10.002000	-4.890000
	239.549702	1366.940422	9.984000	-5.170000
	239.649707	1366.917759	10.004000	-5.290000
	239.749713	1366.940426	10.018000	-4.910000
	239.849719	1366.959513	9.998000	-4.940000
	239.949724	1366.945199	9.982000	-5.220000
	240.049730	1366.927307	10.026000	-5.250000
	240.149736	1366.935657	10.022000	-5.030000
	240.299744	1366.946394	10.002000	-5.010000
	240.399750	1366.935658	9.978000	-5.190000
	240.499756	1366.922537	10.002000	-5.210000
	240.599761	1366.915380	10.018000	-5.160000
	240.699767	1366.915380	10.018000	-5.160000
	240.799773	1366.945205	10.028000	-4.850000
	240.899779	1366.932084	9.976000	-5.210000
	240.999784	1366.927312	9.996000	-5.140000
	241.099790	1366.917770	10.044000	-5.180000
	241.199796	1366.938050	9.978000	-5.090000
	241.349804	1366.917772	10.004000	-5.270000
	241.454811	1366.923737	10.026000	-5.050000
	241.549816	1366.955948	9.988000	-4.830000
	241.649822	1366.951177	9.978000	-5.140000
	241.749827	1366.927321	10.036000	-5.300000
	241.899836	1366.924935	10.030000	-5.120000
	242.000842	1366.945215	9.972000	-4.930000
	242.099847	1366.923745	9.974000	-5.280000
	242.199853	1366.923745	10.038000	-5.100000
	242.299859	1366.947605	10.018000	-4.900000
	242.449867	1366.930905	9.978000	-5.240000
	242.549873	1366.927327	10.038000	-5.130000
	242.649879	1366.935677	10.018000	-5.030000
	242.749885	1366.933291	9.970000	-5.120000
	242.899893	1366.926134	10.014000	-5.160000
	242.999899	1366.935677	10.038000	-5.020000
	243.099905	1366.944028	9.972000	-5.030000
	243.199910	1366.927328	10.000000	-5.240000
	243.352919	1366.940451	10.024000	-4.990000
	243.449924	1366.953573	9.998000	-4.990000
	243.549930	1366.939259	9.982000	-5.220000
	243.649936	1366.942838	10.030000	-5.070000
	243.749942	1366.952381	9.986000	-5.020000
	243.899950	1366.936874	9.968000	-5.230000
	243.999956	1366.911826	9.998000	-5.310000
	244.099962	1366.929720	10.018000	-4.950000
	244.199967	1366.939264	9.982000	-5.020000
	244.349976	1366.927335	10.002000	-5.200000
	244.449982	1366.945229	10.036000	-4.950000
	244.549987	1366.945229	10.036000	-4.950000
	244.649993	1366.960738	9.998000	-4.970000
	244.749999	1366.942846	9.996000	-5.250000
	244.850005	1366.945231	10.040000	-5.080000
	244.950010	1366.955968	9.980000	-5.010000
	245.050016	1366.944039	9.992000	-5.200000
	245.150022	1366.945232	10.050000	-5.090000
	245.264028	1366.972671	9.992000	-4.870000
	245.350033	1366.957164	9.958000	-5.230000
	245.450039	1366.942850	10.018000	-5.220000
	245.553045	1366.958359	10.010000	-4.970000
	245.650050	1366.947623	9.976000	-5.190000
	245.800059	1366.941659	10.008000	-5.150000
	245.900064	1366.957167	10.008000	-4.970000
	246.000071	1366.959553	9.982000	-5.080000
	246.100076	1366.950010	10.010000	-5.180000
	246.250085	1366.950010	10.010000	-5.180000
	246.350091	1366.957168	10.008000	-5.040000
	246.450096	1366.961939	9.998000	-5.060000
	246.551102	1366.934505	9.982000	-5.330000
	246.650107	1366.916613	10.032000	-5.250000
	246.750113	1366.944052	10.004000	-4.870000
	246.850119	1366.952402	10.004000	-5.030000
	246.950125	1366.927354	9.998000	-5.310000
	247.050130	1366.934511	10.030000	-5.040000
	247.150136	1366.950020	10.024000	-4.970000
	247.250142	1366.945248	9.978000	-5.140000
	247.350148	1366.933320	10.012000	-5.200000
	247.450153	1366.945249	10.034000	-5.000000
	247.550159	1366.957178	9.984000	-5.000000
	247.650165	1366.954793	10.006000	-5.120000
	247.757171	1366.946443	10.032000	-5.170000
	247.851176	1366.953600	10.000000	-5.040000
	247.950182	1366.946443	9.978000	-5.160000
	248.050188	1366.941672	10.016000	-5.140000
	248.150193	1366.952408	10.032000	-5.010000
	248.250199	1366.969109	9.994000	-4.960000
	248.351205	1366.947639	9.978000	-5.280000
	248.450211	1366.939289	10.030000	-5.170000
	248.602219	1366.965535	10.000000	-4.880000
	248.700225	1366.965535	10.000000	-4.880000
	248.800231	1366.950028	9.976000	-5.230000
	248.900236	1366.938100	10.012000	-5.200000
	249.000242	1366.960766	10.006000	-4.910000
	249.100248	1366.975082	9.980000	-4.980000
	249.200253	1366.964346	9.986000	-5.190000
	249.300259	1366.950032	10.026000	-5.220000
	249.400265	1366.970313	10.020000	-4.930000
	249.501271	1366.961962	9.994000	-5.170000
	249.600276	1366.952420	10.002000	-5.180000
	249.700282	1366.950034	10.044000	-5.120000
	249.800288	1366.965542	9.990000	-4.970000
	249.900293	1366.948843	10.004000	-5.240000
	250.002299	1366.948843	10.024000	-5.100000
	250.100305	1366.961965	9.994000	-4.990000
	250.201311	1366.967930	9.996000	-5.050000
	250.300316	1366.953616	10.018000	-5.220000
	250.401322	1366.969124	10.028000	-4.970000
	250.502328	1366.976282	9.980000	-5.040000
	250.600334	1366.957196	10.002000	-5.260000
	250.700339	1366.965547	10.016000	-5.030000
	250.850348	1366.981056	9.996000	-4.970000
	250.953354	1366.977477	9.990000	-5.130000
	251.050359	1366.969127	9.992000	-5.170000
	251.150365	1366.970320	10.026000	-5.090000
	251.250371	1366.979863	9.978000	-5.020000
	251.350377	1366.979863	9.978000	-5.020000
	251.450382	1366.956007	9.982000	-5.300000
	251.550388	1366.954814	10.030000	-5.110000
	251.650393	1366.975095	9.992000	-4.930000
	251.750399	1366.951239	10.006000	-5.300000
	251.850405	1366.933346	10.012000	-5.250000
	251.950411	1366.957206	9.996000	-4.900000
	252.050416	1366.957206	9.980000	-5.100000
	252.153422	1366.938121	10.002000	-5.260000
	252.249428	1366.960788	10.032000	-4.910000
	252.349433	1366.963173	9.990000	-5.080000
	252.449439	1366.947667	9.978000	-5.230000
	252.549445	1366.951245	10.018000	-5.070000
	252.650451	1366.963175	9.992000	-5.000000
	252.749456	1366.947668	9.974000	-5.230000
	252.852462	1366.923812	10.030000	-5.300000
	252.949468	1366.923812	10.030000	-5.300000
	253.049474	1366.956023	9.998000	-4.830000
	253.149479	1366.959602	9.972000	-5.070000
	253.299488	1366.947674	9.984000	-5.200000
	253.399494	1366.941709	10.018000	-5.150000
	253.499499	1366.977501	9.986000	-4.800000
	253.599505	1366.989431	9.962000	-5.000000
	253.699511	1366.973923	10.038000	-5.230000
	253.799517	1366.981081	10.008000	-5.040000
	253.899522	1366.976309	9.962000	-5.140000
	253.999528	1366.988239	10.010000	-5.000000
	254.099534	1367.010907	10.010000	-4.910000
	254.200540	1366.978701	9.980000	-5.370000
	254.249542	1366.978701	9.980000	-5.370000
	254.399551	1366.982280	10.038000	-5.070000
	254.499557	1366.985858	9.986000	-5.070000
	254.599562	1366.970351	9.986000	-5.230000
	254.699568	1366.965580	10.022000	-5.140000
	254.799573	1366.982281	9.970000	-4.960000
	254.899580	1366.966774	9.988000	-5.230000
	254.999585	1366.971546	10.022000	-5.060000
	255.099591	1366.970353	9.970000	-5.110000
	255.205597	1366.960810	10.024000	-5.180000
	255.299602	1366.960810	10.024000	-5.180000
	255.399608	1366.984670	10.004000	-4.900000
	255.499614	1366.985863	9.996000	-5.090000
	255.599619	1366.990635	10.028000	-5.060000
	255.699625	1367.000179	9.982000	-5.020000
	255.799631	1366.990636	10.006000	-5.180000
	255.899637	1366.989443	10.028000	-5.110000
	255.999642	1367.004952	9.994000	-4.970000
	256.099648	1366.975131	9.996000	-5.350000
	256.200654	1366.979903	10.026000	-5.060000
	256.310660	1366.996605	9.986000	-4.960000
	256.399665	1366.966785	9.976000	-5.350000
	256.499671	1366.972749	10.044000	-5.050000
	256.599677	1366.994223	9.990000	-4.920000
	256.699682	1366.995416	9.988000	-5.090000
	256.799688	1367.000188	10.020000	-5.060000
	256.949697	1367.020470	9.984000	-4.930000
	257.049702	1367.014505	9.980000	-5.150000
	257.149708	1367.009733	10.016000	-5.140000
	257.249714	1367.024049	10.002000	-4.980000
	257.349720	1367.026435	9.984000	-5.080000
	257.449725	1367.007349	10.016000	-5.260000
	257.549731	1367.007349	10.016000	-5.260000
	257.651737	1367.027631	10.016000	-4.930000
	257.749743	1367.034789	9.994000	-5.040000
	257.849748	1366.997811	9.982000	-5.410000
	257.949754	1367.002583	10.020000	-5.060000
	258.049759	1367.018092	9.994000	-4.970000
	258.149765	1366.999006	9.970000	-5.260000
	258.249771	1366.994235	10.024000	-5.140000
	258.349777	1367.000200	10.014000	-5.050000
	258.449782	1366.985885	9.986000	-5.220000
	258.550788	1366.984692	10.014000	-5.110000
	258.649794	1367.003780	10.010000	-4.940000
	258.749800	1366.989466	9.986000	-5.220000
	258.849805	1366.985887	10.026000	-5.130000
	258.949811	1367.002589	9.986000	-4.960000
	259.049817	1367.006168	9.962000	-5.070000
	259.199825	1366.984697	10.004000	-5.280000
	259.299831	1367.007364	10.028000	-4.910000
	259.399837	1367.000207	9.984000	-5.160000
	259.499843	1366.989471	9.982000	-5.190000
	259.599848	1367.001400	10.018000	-5.000000
	259.709855	1367.018102	9.978000	-4.960000
	259.799860	1367.009752	9.982000	-5.170000
	259.899866	1367.009752	9.982000	-5.170000
	260.002871	1367.007366	10.010000	-5.120000
	260.099877	1367.034807	10.022000	-4.870000
	260.199883	1367.032421	9.958000	-5.120000
	260.299888	1367.027649	10.036000	-5.140000
	260.399894	1367.051510	10.004000	-4.900000
	260.499900	1367.047931	9.982000	-5.130000
	260.599905	1367.030038	9.996000	-5.250000
	260.702911	1367.039582	10.042000	-5.020000
	260.799917	1367.032424	9.962000	-5.160000
	260.899923	1367.015724	10.004000	-5.240000
	260.999928	1367.018110	10.008000	-5.080000
	261.099934	1367.041971	9.980000	-4.900000
	261.199940	1367.025270	9.982000	-5.240000
	261.299945	1367.043166	10.014000	-4.950000
	261.450954	1367.028851	9.980000	-5.220000
	261.549960	1367.021693	10.018000	-5.160000
	261.650966	1367.034817	9.988000	-4.990000
	261.749971	1367.036010	9.968000	-5.090000
	261.849977	1367.016923	10.026000	-5.260000
	261.999986	1367.016923	10.026000	-5.260000
	262.099991	1367.025274	9.998000	-5.030000
	262.199997	1367.014538	9.974000	-5.190000
	262.300003	1367.006188	10.022000	-5.170000
	262.400009	1367.021697	10.018000	-4.970000
	262.500014	1367.014539	9.964000	-5.160000
	262.600020	1367.002610	10.024000	-5.200000
	262.700026	1367.022892	10.010000	-4.930000
	262.800031	1367.030050	9.968000	-5.040000
	262.850034	1367.030050	10.002000	-5.100000
	263.000043	1367.052718	10.012000	-4.910000
	263.100049	1367.034824	9.960000	-5.250000
	263.200054	1367.026474	10.012000	-5.170000
	263.300060	1367.045563	10.000000	-4.940000
	263.350063	1367.045563	10.000000	-4.940000
	263.450068	1367.044370	9.988000	-5.110000
	263.550074	1367.040791	10.020000	-5.130000
	263.700083	1367.062266	10.004000	-4.920000
	263.806089	1367.045565	9.984000	-5.240000
	263.900094	1367.037215	10.010000	-5.170000
	264.000100	1367.050338	9.962000	-4.990000
	264.100106	1367.046759	10.010000	-5.130000
	264.200111	1367.057496	9.996000	-5.010000
	264.300117	1367.043181	9.978000	-5.220000
	264.400123	1367.036023	10.022000	-5.160000
	264.500129	1367.058692	9.976000	-4.910000
	264.606134	1367.055113	9.958000	-5.130000
	264.700140	1367.041991	10.026000	-5.210000
	264.800146	1367.051535	9.996000	-5.020000
	264.912152	1367.051535	9.996000	-5.020000
	265.050160	1367.053921	10.004000	-5.080000
	265.153166	1367.039606	9.994000	-5.220000
	265.251172	1367.053922	9.978000	-4.980000
	265.350177	1367.043186	9.984000	-5.190000
	265.450183	1367.052730	10.006000	-5.020000
	265.557189	1367.049151	9.958000	-5.130000
	265.650194	1367.045572	10.018000	-5.130000
	265.750200	1367.065854	9.978000	-4.930000
	265.861207	1367.052732	9.964000	-5.210000
	265.950212	1367.059890	10.022000	-5.040000
	266.051217	1367.059890	9.974000	-5.100000
	266.200226	1367.056311	10.002000	-5.130000
	266.300231	1367.076593	9.994000	-4.930000
	266.405238	1367.055121	9.966000	-5.280000
	266.500243	1367.045577	10.018000	-5.180000
	266.600249	1367.069439	9.982000	-4.900000
	266.700254	1367.056317	9.960000	-5.210000
	266.800260	1367.056317	9.960000	-5.210000
	266.902266	1367.056317	9.996000	-5.100000
	267.000271	1367.062282	9.960000	-5.050000
	267.103278	1367.046774	9.990000	-5.230000
	267.200283	1367.067056	10.006000	-4.930000
	267.303289	1367.050355	9.960000	-5.240000
	267.400294	1367.052741	10.002000	-5.080000
	267.500300	1367.069444	9.958000	-4.960000
	267.653309	1367.052743	10.004000	-5.240000
	267.750314	1367.069445	9.970000	-4.960000
	267.850320	1367.070638	9.978000	-5.090000
	267.950326	1367.070638	10.002000	-5.100000
	268.000329	1367.070638	10.002000	-5.100000
	268.150337	1367.081376	9.974000	-5.010000
	268.250343	1367.062289	10.008000	-5.260000
	268.350349	1367.070640	9.990000	-5.030000
	268.450355	1367.064675	9.978000	-5.150000
	268.550360	1367.050360	10.002000	-5.220000
	268.650366	1367.074222	9.992000	-4.900000
	268.750371	1367.071836	9.978000	-5.120000
	268.850378	1367.073029	9.998000	-5.090000
	268.950383	1367.086153	9.978000	-4.990000
	269.051389	1367.089732	9.970000	-5.070000
	269.150394	1367.076609	10.034000	-5.210000
	269.250400	1367.094505	9.982000	-4.950000
	269.350406	1367.083769	9.966000	-5.190000
	269.450412	1367.086155	10.014000	-5.080000
	269.556418	1367.088541	9.966000	-5.080000
	269.649423	1367.070647	9.988000	-5.250000
	269.749429	1367.070647	9.988000	-5.250000
	269.849434	1367.075419	10.014000	-5.060000
	269.949440	1367.069454	9.954000	-5.150000
	270.049446	1367.056332	9.994000	-5.210000
	270.149452	1367.063490	10.002000	-5.040000
	270.249457	1367.050367	9.986000	-5.210000
	270.349463	1367.053946	10.008000	-5.070000
	270.449469	1367.081388	10.000000	-4.870000
	270.549475	1367.064687	9.974000	-5.240000
	270.649480	1367.062301	10.006000	-5.120000
	270.749486	1367.083776	9.992000	-4.920000
	270.849492	1367.068268	9.964000	-5.230000
	270.949497	1367.070654	10.000000	-5.080000
	271.049503	1367.082585	9.988000	-5.000000
	271.152509	1367.069462	9.976000	-5.210000
	271.249515	1367.080199	10.006000	-5.010000
	271.349520	1367.094516	9.960000	-4.980000
	271.449526	1367.073044	9.980000	-5.280000
	271.549532	1367.092133	10.000000	-4.940000
	271.649538	1367.092133	10.000000	-4.940000
	271.749543	1367.102870	9.968000	-5.010000
	271.849549	1367.074241	9.994000	-5.340000
	271.949554	1367.088558	9.982000	-4.980000
	272.049561	1367.080207	9.972000	-5.170000
	272.149566	1367.059927	9.972000	-5.270000
	272.249572	1367.084982	10.014000	-4.890000
	272.350577	1367.086175	9.958000	-5.090000
	272.455584	1367.068281	9.994000	-5.250000
	272.549589	1367.082598	10.012000	-4.980000
	272.649595	1367.088563	9.968000	-5.050000
	272.749600	1367.057548	9.994000	-5.360000
	272.854606	1367.071865	10.010000	-4.980000
	272.949612	1367.071865	9.968000	-5.100000
	273.049618	1367.063514	9.992000	-5.170000
	273.149623	1367.088569	9.984000	-4.890000
	273.249629	1367.088569	9.984000	-4.890000
	273.349635	1367.076640	9.980000	-5.200000
	273.449640	1367.092149	10.014000	-4.970000
	273.549646	1367.092149	9.970000	-5.100000
	273.649652	1367.070677	9.996000	-5.280000
	273.749658	1367.094539	9.986000	-4.900000
	273.849663	1367.092153	9.970000	-5.120000
	273.949669	1367.083802	10.016000	-5.170000
	274.054675	1367.088574	9.980000	-5.060000
	274.149681	1367.067102	9.960000	-5.280000
	274.249686	1367.075453	10.008000	-5.030000
	274.349692	1367.101701	9.992000	-4.880000
	274.449697	1367.079036	9.976000	-5.290000
	274.549703	1367.079036	10.012000	-5.100000
	274.649709	1367.099318	9.974000	-4.930000
	274.749715	1367.088582	9.964000	-5.190000
	274.849720	1367.086196	9.998000	-5.120000
	274.999729	1367.096933	9.992000	-5.010000
	275.099735	1367.093354	9.956000	-5.130000
	275.199740	1367.096933	9.998000	-5.070000
	275.299746	1367.110057	9.984000	-4.990000
	275.399752	1367.110057	9.984000	-4.990000
	275.499758	1367.102899	9.950000	-5.160000
	275.599763	1367.099320	10.012000	-5.130000
	275.699769	1367.105285	9.976000	-5.050000
	275.799775	1367.087391	9.956000	-5.250000
	275.899781	1367.110060	10.024000	-4.910000
	275.999786	1367.130343	9.980000	-4.930000
	276.099792	1367.116027	9.980000	-5.220000
	276.199798	1367.125572	9.998000	-5.020000
	276.299803	1367.126765	9.960000	-5.090000
	276.399809	1367.093364	10.000000	-5.380000
	276.504815	1367.121999	10.004000	-4.860000
	276.599821	1367.132737	9.956000	-5.010000
	276.699826	1367.111264	9.998000	-5.280000
	276.799832	1367.129160	10.008000	-4.950000
	276.899838	1367.135126	9.980000	-5.050000
	276.999844	1367.100531	9.968000	-5.390000
	277.099849	1367.105303	10.012000	-5.060000
	277.199855	1367.105303	10.012000	-5.060000
	277.299860	1367.111269	9.950000	-5.050000
	277.399867	1367.098146	9.988000	-5.210000
	277.499872	1367.102918	10.008000	-5.060000
	277.599878	1367.106497	9.964000	-5.070000
	277.699883	1367.086217	9.978000	-5.270000
	277.799889	1367.095762	10.012000	-5.020000
	277.899895	1367.092183	9.956000	-5.130000
	277.999901	1367.104113	10.010000	-5.000000
	278.106907	1367.127976	9.968000	-4.900000
	278.199912	1367.114853	9.974000	-5.210000
	278.299918	1367.108888	10.002000	-5.150000
	278.406924	1367.120819	9.974000	-5.000000
	278.499929	1367.105310	9.966000	-5.230000
	278.599935	1367.113662	9.998000	-5.030000
	278.699941	1367.116048	9.958000	-5.080000
	278.849949	1367.102925	9.964000	-5.210000
	278.949955	1367.117242	10.024000	-4.980000
	279.049961	1367.122014	9.966000	-5.060000
	279.149966	1367.108891	9.956000	-5.210000
	279.249972	1367.108891	9.956000	-5.210000
	279.349978	1367.111278	10.000000	-5.080000
	279.449984	1367.123208	9.970000	-5.000000
	279.549989	1367.113664	9.960000	-5.180000
	279.649995	1367.119630	10.020000	-5.050000
	279.750001	1367.116051	9.966000	-5.130000
	279.850007	1367.106507	9.982000	-5.180000
	279.950012	1367.124403	10.002000	-4.950000
	280.054018	1367.111280	9.968000	-5.210000
	280.150023	1367.117246	10.012000	-5.050000
	280.253029	1367.124404	9.956000	-5.040000
	280.350035	1367.108895	10.000000	-5.230000
	280.450041	1367.119633	9.966000	-5.010000
	280.600049	1367.101739	9.984000	-5.250000
	280.700055	1367.112476	9.996000	-5.010000
	280.820062	1367.096968	9.980000	-5.230000
	280.950069	1367.105319	9.996000	-5.030000
	281.050075	1367.122022	9.986000	-4.960000
	281.150081	1367.113671	9.970000	-5.170000
	281.250087	1367.116058	9.998000	-5.080000
	281.352092	1367.138727	9.978000	-4.910000
	281.450098	1367.123218	9.976000	-5.230000
	281.550104	1367.123218	9.976000	-5.230000
	281.650109	1367.102938	10.010000	-5.270000
	281.750115	1367.118448	9.966000	-4.970000
	281.850121	1367.100554	9.956000	-5.250000
	281.950127	1367.104133	10.006000	-5.070000
	282.050132	1367.133962	9.984000	-4.850000
	282.150138	1367.114874	9.958000	-5.260000
	282.250144	1367.122033	9.994000	-5.040000
	282.350150	1367.141123	9.966000	-4.940000
	282.451155	1367.136351	9.978000	-5.140000
	282.550161	1367.142316	10.002000	-5.050000
	282.650167	1367.151861	9.966000	-5.020000
	282.750172	1367.130387	9.990000	-5.280000
	282.850178	1367.137546	9.994000	-5.040000
	282.950184	1367.141125	9.956000	-5.070000
	283.050189	1367.129195	9.990000	-5.200000
	283.150195	1367.139933	9.996000	-5.010000
	283.250201	1367.133968	9.934000	-5.150000
	283.400209	1367.133968	9.934000	-5.150000
	283.500215	1367.116073	9.990000	-5.250000
	283.600221	1367.139936	9.996000	-4.900000
	283.700227	1367.143515	9.968000	-5.070000
	283.800232	1367.113692	9.994000	-5.350000
	283.900238	1367.147101	10.000000	-4.820000
	284.000244	1367.138750	9.960000	-5.170000
	284.100250	1367.124434	9.984000	-5.220000
	284.200255	1367.142331	9.984000	-4.950000
	284.300261	1367.144717	9.952000	-5.080000
	284.400267	1367.126822	9.988000	-5.250000
	284.500272	1367.147105	9.988000	-4.930000
	284.600278	1367.129211	9.958000	-5.250000
	284.700284	1367.125632	10.012000	-5.130000
	284.800290	1367.145915	9.972000	-4.930000
	284.902296	1367.132792	9.966000	-5.210000
	285.000301	1367.123248	10.008000	-5.180000
	285.100307	1367.123248	10.008000	-5.180000
	285.200313	1367.135179	9.972000	-5.000000
	285.300318	1367.122056	9.966000	-5.210000
	285.400324	1367.123249	10.002000	-5.090000
	285.500329	1367.148305	9.972000	-4.890000
	285.600335	1367.125639	9.960000	-5.290000
	285.700341	1367.126832	10.016000	-5.090000
	285.800347	1367.136376	9.982000	-5.020000
	285.900352	1367.113710	9.956000	-5.290000
	286.000358	1367.125641	10.018000	-5.000000
	286.100364	1367.142345	9.972000	-4.960000
	286.200370	1367.129222	9.954000	-5.210000
	286.300375	1367.123257	10.004000	-5.150000
	286.400381	1367.143540	9.966000	-4.930000
	286.500387	1367.144733	9.946000	-5.090000
	286.607393	1367.150698	10.008000	-5.050000
	286.700398	1367.163823	9.988000	-4.990000
	286.800404	1367.151892	9.952000	-5.200000
	286.900410	1367.139962	10.000000	-5.200000
	287.000415	1367.139962	10.000000	-5.200000
	287.099421	1367.161439	9.964000	-4.920000
	287.199427	1367.138772	9.974000	-5.290000
	287.299433	1367.132807	9.992000	-5.150000
	287.399438	1367.149511	9.990000	-4.960000
	287.499444	1367.142353	9.950000	-5.160000
	287.599450	1367.139967	9.996000	-5.120000
	287.699455	1367.069592	9.952000	-5.690000
	287.799461	1367.019495	10.050000	-5.520000
	287.899467	1367.031425	9.980000	-5.000000
	287.999473	1367.067219	9.984000	-4.800000
	288.099478	1367.092274	9.956000	-4.890000
	288.206484	1367.099432	9.966000	-5.040000
	288.299490	1367.104204	10.000000	-5.060000
	288.399496	1367.130453	9.968000	-4.880000
	288.499501	1367.116138	9.966000	-5.220000
	288.599507	1367.124489	10.008000	-5.030000
	288.699512	1367.124489	10.008000	-5.030000
	288.799519	1367.147159	9.964000	-4.910000
	288.899524	1367.141194	9.960000	-5.150000
	288.999530	1367.134035	9.986000	-5.160000
	289.099535	1367.165058	9.958000	-4.840000
	289.199541	1367.161479	9.946000	-5.130000
	289.299547	1367.142391	9.996000	-5.260000
	289.399553	1367.163868	10.000000	-4.920000
	289.499558	1367.167447	9.964000	-5.070000
	289.609565	1367.142395	9.988000	-5.310000
	289.699570	1367.172225	9.986000	-4.850000
	289.802576	1367.182963	9.980000	-5.010000
	289.899581	1367.165068	9.968000	-5.250000
	289.999587	1367.178192	10.008000	-4.990000
	290.099593	1367.193703	9.968000	-4.970000
	290.199598	1367.180580	9.956000	-5.210000
	290.299604	1367.162685	10.010000	-5.250000
	290.399610	1367.162685	10.010000	-5.250000
	290.499616	1367.156720	9.980000	-5.220000
	290.649624	1367.156720	9.992000	-5.100000
	290.749630	1367.179390	9.974000	-4.910000
	290.849636	1367.169846	9.978000	-5.180000
	290.949641	1367.171039	9.998000	-5.090000
	291.049647	1367.196096	9.970000	-4.890000
	291.149653	1367.175815	9.952000	-5.270000
	291.249659	1367.175815	10.004000	-5.100000
	291.349664	1367.175815	10.004000	-5.100000
	291.449670	1367.182974	9.966000	-5.040000
	291.549675	1367.169850	9.978000	-5.210000
	291.649682	1367.160306	9.992000	-5.180000
	291.749687	1367.192523	9.954000	-4.830000
	291.849693	1367.182978	9.980000	-5.180000
	291.949698	1367.174627	10.012000	-5.170000
	292.049704	1367.197298	9.970000	-4.910000
	292.149710	1367.175823	9.964000	-5.280000
	292.252716	1367.165086	9.988000	-5.190000
	292.349721	1367.181790	9.994000	-4.960000
	292.449727	1367.166281	9.950000	-5.230000
	292.549733	1367.156736	9.996000	-5.180000
	292.649739	1367.178213	9.980000	-4.920000
	292.749744	1367.155547	9.962000	-5.290000
	292.849750	1367.163898	10.014000	-5.030000
	292.949756	1367.188955	9.990000	-4.890000
	293.049761	1367.174639	9.976000	-5.220000
	293.199770	1367.179411	10.000000	-5.060000
	293.299776	1367.187763	9.966000	-5.030000
	293.399781	1367.171061	9.954000	-5.240000
	293.499787	1367.172254	10.012000	-5.090000
	293.599793	1367.172254	10.012000	-5.090000
	293.699799	1367.186572	9.976000	-4.980000
	293.799804	1367.174641	9.974000	-5.200000
	293.899810	1367.178220	10.006000	-5.070000
	293.999816	1367.186572	9.956000	-5.030000
	294.099822	1367.178221	9.980000	-5.170000
	294.199827	1367.177028	10.004000	-5.110000
	294.299833	1367.185380	9.976000	-5.030000
	294.399838	1367.181800	9.954000	-5.130000
	294.499845	1367.178221	10.010000	-5.130000
	294.599850	1367.192539	9.952000	-4.980000
	294.700856	1367.178223	9.956000	-5.220000
	294.799861	1367.171064	9.994000	-5.160000
	294.899867	1367.185382	9.978000	-4.980000
	294.999873	1367.179417	9.978000	-5.150000
	295.099879	1367.178224	9.996000	-5.110000
	295.199884	1367.192541	9.940000	-4.980000
	295.310891	1367.192541	9.940000	-4.980000
	295.412897	1367.175839	9.958000	-5.240000
	295.499902	1367.173453	10.006000	-5.120000
	295.602908	1367.185384	9.956000	-5.000000
	295.703913	1367.175840	9.962000	-5.180000
	295.799919	1367.178226	10.012000	-5.080000
	295.899924	1367.185385	9.960000	-5.040000
	295.999930	1367.162718	9.992000	-5.290000
	296.099936	1367.166297	9.992000	-5.070000
	296.199942	1367.186581	9.954000	-4.930000
	296.301948	1367.169879	9.960000	-5.240000
	296.399953	1367.184196	10.010000	-4.980000
	296.499959	1367.209254	9.968000	-4.890000
	296.599965	1367.194937	9.966000	-5.220000
	296.699970	1367.197323	9.998000	-5.080000
	296.799976	1367.216414	9.974000	-4.940000
	296.899981	1367.204484	9.952000	-5.200000
	296.999988	1367.204484	9.952000	-5.200000
	297.102993	1367.221188	9.992000	-4.960000
	297.250002	1367.210450	9.958000	-5.190000
	297.300004	1367.193748	10.000000	-5.240000
	297.452013	1367.209259	10.002000	-4.970000
	297.550019	1367.199714	9.952000	-5.180000
	297.650024	1367.188977	9.990000	-5.190000
	297.750031	1367.208068	9.976000	-4.940000
	297.850036	1367.202102	9.952000	-5.150000
	297.950042	1367.193751	9.994000	-5.170000
	298.050047	1367.212842	9.970000	-4.940000
	298.150053	1367.198525	9.948000	-5.220000
	298.250059	1367.185402	9.976000	-5.210000
	298.350065	1367.212846	10.004000	-4.870000
	298.454071	1367.220005	9.952000	-5.040000
	298.550076	1367.210460	9.968000	-5.180000
	298.650082	1367.206881	10.010000	-5.130000
	298.750088	1367.230745	9.954000	-4.900000
	298.850093	1367.211656	9.960000	-5.260000
	298.950099	1367.202112	10.006000	-5.180000
	299.050105	1367.214043	9.966000	-5.000000
	299.150110	1367.214043	9.966000	-5.000000
	299.250116	1367.202113	9.956000	-5.200000
	299.350122	1367.206885	10.020000	-5.060000
	299.450128	1367.227170	9.968000	-4.930000
	299.550133	1367.216432	9.956000	-5.190000
	299.650139	1367.217625	9.994000	-5.090000
	299.750145	1367.235523	9.960000	-4.950000
	299.850151	1367.217627	9.948000	-5.250000
	299.953156	1367.257006	10.002000	-4.770000
	300.050162	1367.203324	9.920000	-5.550000
	300.150167	1367.200937	9.958000	-5.120000
	300.250174	1367.212869	9.982000	-5.000000
	300.350179	1367.224801	9.958000	-5.000000
	300.450185	1367.209291	9.976000	-5.230000
	300.550190	1367.215257	9.984000	-5.050000
	300.656197	1367.214063	9.952000	-5.110000
	300.750202	1367.191396	9.960000	-5.290000
	300.900210	1367.202134	9.988000	-5.010000
	301.000216	1367.202134	9.988000	-5.010000
	301.100222	1367.224805	9.958000	-4.910000
	301.200228	1367.216454	9.966000	-5.170000
	301.300233	1367.222419	9.994000	-5.050000
	301.400239	1367.243897	9.974000	-4.920000
	301.500245	1367.231967	9.972000	-5.200000
	301.600251	1367.239126	9.992000	-5.040000
	301.700256	1367.257024	9.956000	-4.950000
	301.800262	1367.227198	9.962000	-5.350000
	301.900268	1367.239130	9.998000	-5.000000
	302.000273	1367.239130	9.966000	-5.100000
	302.100279	1367.221234	9.958000	-5.250000
	302.200285	1367.226006	9.984000	-5.060000
	302.300291	1367.229586	9.940000	-5.070000
	302.404296	1367.216462	9.986000	-5.210000
	302.500302	1367.230780	9.994000	-4.980000
	302.600308	1367.246292	9.932000	-4.970000
	302.700314	1367.233168	9.978000	-5.210000
	302.800319	1367.246293	10.004000	-4.990000
	302.900325	1367.246293	10.004000	-4.990000
	303.000330	1367.249873	9.944000	-5.070000
	303.100337	1367.252259	9.932000	-5.080000
	303.200342	1367.251066	9.970000	-5.110000
	303.300348	1367.247486	9.948000	-5.130000
	303.400353	1367.246293	9.984000	-5.110000
	303.500359	1367.266578	9.964000	-4.930000
	303.600365	1367.261806	9.956000	-5.140000
	303.700371	1367.254647	9.978000	-5.160000
	303.800376	1367.264192	9.962000	-5.020000
	303.906383	1367.245103	9.940000	-5.260000
	304.000388	1367.257035	10.000000	-5.000000
	304.100394	1367.266581	9.964000	-5.020000
	304.200399	1367.242719	9.974000	-5.300000
	304.300405	1367.242719	9.984000	-5.100000
	304.403411	1367.255845	9.954000	-4.990000
	304.519417	1367.231983	9.960000	-5.300000
	304.599422	1367.234370	9.998000	-5.080000
	304.749431	1367.241529	9.934000	-5.040000
	304.849436	1367.233177	9.964000	-5.170000
	304.949442	1367.247495	10.000000	-4.980000
	305.049448	1367.247495	10.000000	-4.980000
	305.149454	1367.257041	9.946000	-5.020000
	305.249459	1367.243917	9.956000	-5.210000
	305.352465	1367.243917	9.982000	-5.100000
	305.449471	1367.254656	9.938000	-5.010000
	305.549477	1367.241532	9.988000	-5.210000
	305.649482	1367.259430	9.984000	-4.950000
	305.749488	1367.251078	9.948000	-5.170000
	305.849494	1367.242726	9.990000	-5.170000
	305.954500	1367.263011	9.954000	-4.930000
	306.062506	1367.249887	9.962000	-5.210000
	306.149511	1367.245115	9.984000	-5.140000
	306.250516	1367.242728	9.950000	-5.120000
	306.349522	1367.239149	9.974000	-5.130000
	306.449528	1367.242728	9.984000	-5.070000
	306.549534	1367.241535	9.926000	-5.110000
	306.649539	1367.227218	9.976000	-5.220000
	306.749545	1367.227218	9.976000	-5.220000
	306.849551	1367.249890	9.984000	-4.910000
	306.949556	1367.254662	9.940000	-5.060000
	307.049562	1367.257049	9.970000	-5.080000
	307.149568	1367.263015	9.950000	-5.050000
	307.249574	1367.255856	9.952000	-5.160000
	307.349579	1367.257049	9.980000	-5.090000
	307.449585	1367.264208	9.956000	-5.040000
	307.549591	1367.251084	9.958000	-5.210000
	307.649597	1367.258243	9.974000	-5.040000
	307.749602	1367.276142	9.946000	-4.950000
	307.851608	1367.255859	9.990000	-5.270000
	307.949614	1367.272564	9.952000	-4.960000
	308.049620	1367.265405	9.956000	-5.160000
	308.149625	1367.268985	9.994000	-5.070000
	308.252631	1367.284497	9.954000	-4.970000
	308.349637	1367.268987	9.952000	-5.230000
	308.457643	1367.268987	9.952000	-5.230000
	308.551648	1367.285692	9.998000	-4.960000
	308.667655	1367.277340	9.938000	-5.170000
	308.766661	1367.260637	9.970000	-5.240000
	308.849665	1367.274955	9.956000	-4.980000
	308.967672	1367.263024	9.946000	-5.200000
	309.049676	1367.253479	9.998000	-5.180000
	309.149683	1367.265411	9.950000	-5.000000
	309.249688	1367.249901	9.962000	-5.230000
	309.349694	1367.249901	9.982000	-5.100000
	309.449699	1367.260640	9.956000	-5.010000
	309.555706	1367.245129	9.966000	-5.230000
	309.649711	1367.260641	9.980000	-4.970000
	309.749717	1367.258255	9.942000	-5.120000
	309.849722	1367.248710	9.970000	-5.180000
	309.949728	1367.267802	9.960000	-4.940000
	310.049734	1367.257064	9.942000	-5.190000
	310.149740	1367.260643	10.010000	-5.070000
	310.249745	1367.260643	10.010000	-5.070000
	310.349751	1367.280928	9.952000	-4.930000
	310.449757	1367.272576	9.968000	-5.170000
	310.549762	1367.285702	9.952000	-4.990000
	310.649768	1367.278543	9.954000	-5.160000
	310.749774	1367.274964	9.988000	-5.130000
	310.851779	1367.288089	9.954000	-4.990000
	310.949785	1367.260649	9.968000	-5.330000
	311.052791	1367.265421	9.976000	-5.060000
	311.149797	1367.266614	9.952000	-5.090000
	311.249803	1367.254683	9.962000	-5.200000
	311.349808	1367.269002	9.990000	-4.980000
	311.449814	1367.261843	9.942000	-5.160000
	311.553820	1367.267809	9.974000	-5.050000
	311.650826	1367.303609	9.954000	-4.800000
	311.766832	1367.279747	9.962000	-5.300000
	311.851837	1367.272588	9.984000	-5.160000
	311.949842	1367.272588	9.984000	-5.160000
	312.049848	1367.291680	9.920000	-4.940000
	312.149854	1367.283328	9.962000	-5.170000
	312.249860	1367.285715	9.972000	-5.080000
	312.349865	1367.289294	9.944000	-5.070000
	312.449871	1367.288101	9.980000	-5.110000
	312.549877	1367.310773	9.940000	-4.910000
	312.651883	1367.302421	9.954000	-5.170000
	312.749888	1367.297649	10.006000	-5.140000
	312.849894	1367.288103	9.944000	-5.180000
	312.949900	1367.282138	9.976000	-5.150000
	313.049905	1367.298843	9.972000	-4.960000
	313.149911	1367.289298	9.944000	-5.180000
	313.249917	1367.279753	9.984000	-5.180000
	313.349923	1367.291685	9.956000	-5.000000
	313.449928	1367.279754	9.962000	-5.200000
	313.549934	1367.292879	10.000000	-4.990000
	313.699943	1367.292879	10.000000	-4.990000
	313.799948	1367.279755	9.944000	-5.210000
	313.899954	1367.300040	9.968000	-4.930000
	313.999960	1367.314360	9.958000	-4.980000
	314.099966	1367.292883	9.976000	-5.280000
	314.199971	1367.302429	9.968000	-5.020000
	314.299977	1367.306009	9.940000	-5.070000
	314.399982	1367.301236	9.990000	-5.140000
	314.499989	1367.317942	9.972000	-4.960000
	314.599994	1367.303624	9.954000	-5.220000
	314.700000	1367.297658	9.986000	-5.150000
	314.801005	1367.292886	9.946000	-5.140000
	314.900011	1367.279761	9.980000	-5.210000
	315.000017	1367.304820	9.980000	-4.890000
	315.100023	1367.295275	9.942000	-5.180000
	315.200028	1367.302434	9.968000	-5.040000
	315.300034	1367.322720	9.944000	-4.930000
	315.400040	1367.307209	9.948000	-5.230000
	315.500046	1367.328689	9.966000	-4.920000
	315.600051	1367.329882	9.956000	-5.090000
	315.700057	1367.329882	9.956000	-5.090000
	315.800063	1367.303633	9.986000	-5.320000
	315.900068	1367.322726	9.970000	-4.940000
	316.000074	1367.317953	9.962000	-5.140000
	316.100080	1367.313180	9.980000	-5.140000
	316.200086	1367.323920	9.960000	-5.010000
	316.300091	1367.303637	9.940000	-5.270000
	316.400097	1367.303637	9.998000	-5.100000
	316.500103	1367.301250	9.930000	-5.120000
	316.607109	1367.291705	9.972000	-5.180000
	316.700114	1367.303637	9.966000	-5.000000
	316.800120	1367.278582	9.962000	-5.310000
	316.900126	1367.282162	9.986000	-5.070000
	317.001132	1367.288128	9.966000	-5.050000
	317.100137	1367.272617	9.976000	-5.230000
	317.200143	1367.285743	9.962000	-4.990000
	317.300148	1367.270232	9.942000	-5.230000
	317.450157	1367.267846	9.994000	-5.120000
	317.550163	1367.265460	9.940000	-5.120000
	317.650168	1367.265460	9.940000	-5.120000
	317.750174	1367.259494	9.986000	-5.150000
	317.850180	1367.271426	9.988000	-5.000000
	317.950186	1367.269040	9.964000	-5.120000
	318.050191	1367.280972	9.982000	-5.000000
	318.150197	1367.285745	9.954000	-5.060000
	318.250203	1367.264269	9.978000	-5.280000
	318.350209	1367.277395	9.964000	-4.990000
	318.450214	1367.278588	9.946000	-5.090000
	318.550220	1367.265464	9.986000	-5.210000
	318.650226	1367.273816	9.958000	-5.030000
	318.750231	1367.261885	9.952000	-5.200000
	318.850237	1367.282170	9.966000	-4.930000
	318.952243	1367.282170	9.938000	-5.100000
	319.050249	1367.282170	9.996000	-5.100000
	319.150254	1367.294102	9.944000	-5.000000
	319.250260	1367.280978	9.972000	-5.210000
	319.350266	1367.280978	9.972000	-5.210000
	319.450272	1367.295297	9.964000	-4.980000
	319.550277	1367.289331	9.952000	-5.150000
	319.650283	1367.288138	9.988000	-5.110000
	319.750288	1367.297684	9.942000	-5.020000
	319.850295	1367.271436	9.962000	-5.320000
	319.950300	1367.283368	9.978000	-5.000000
	320.050306	1367.284561	9.940000	-5.090000
	320.154312	1367.284561	9.978000	-5.100000
	320.250317	1367.301267	9.960000	-4.960000
	320.350323	1367.271440	9.958000	-5.350000
	320.450329	1367.279792	9.982000	-5.030000
	320.550334	1367.294111	9.944000	-4.980000
	320.652340	1367.276215	9.982000	-5.250000
	320.750346	1367.297693	9.972000	-4.920000
	320.850351	1367.286955	9.930000	-5.190000
	320.950357	1367.278603	9.988000	-5.170000
	321.050363	1367.278603	9.988000	-5.170000
	321.150369	1367.277410	9.944000	-5.110000
	321.250374	1367.264286	9.978000	-5.210000
	321.350380	1367.288151	9.972000	-4.900000
	321.450386	1367.286958	9.956000	-5.110000
	321.550392	1367.294117	9.980000	-5.040000
	321.650397	1367.295310	9.942000	-5.090000
	321.750403	1367.290538	9.978000	-5.140000
	321.850409	1367.314404	9.946000	-4.900000
	321.950415	1367.302472	9.952000	-5.200000
	322.050420	1367.298893	9.996000	-5.130000
	322.153426	1367.315598	9.954000	-4.960000
	322.249432	1367.292929	9.956000	-5.290000
	322.349437	1367.304862	9.972000	-5.000000
	322.449443	1367.306055	9.946000	-5.090000
	322.549449	1367.283386	9.964000	-5.290000
	322.649455	1367.283386	9.964000	-5.290000
	322.749460	1367.297705	9.970000	-4.980000
	322.849466	1367.289353	9.944000	-5.170000
	322.949471	1367.286966	9.990000	-5.120000
	323.049478	1367.306059	9.974000	-4.940000
	323.149483	1367.289355	9.934000	-5.240000
	323.249489	1367.302480	9.974000	-4.990000
	323.349494	1367.308447	9.944000	-5.050000
	323.449500	1367.307253	9.986000	-5.110000
	323.549506	1367.322766	9.954000	-4.970000
	323.649512	1367.316800	9.950000	-5.150000
	323.754518	1367.322766	9.964000	-5.050000
	323.849523	1367.334699	9.952000	-5.000000
	323.949529	1367.304871	9.970000	-5.350000
	324.049534	1367.323964	9.974000	-4.940000
	324.149540	1367.325157	9.934000	-5.090000
	324.249546	1367.307260	9.958000	-5.250000
	324.349552	1367.307260	9.958000	-5.250000
	324.458558	1367.322772	9.976000	-4.970000
	324.552563	1367.315613	9.914000	-5.160000
	324.649569	1367.309647	9.978000	-5.150000
	324.749575	1367.328740	9.960000	-4.940000
	324.849580	1367.309650	9.932000	-5.260000
	324.951586	1367.306070	9.992000	-5.130000
	325.049592	1367.326356	9.958000	-4.930000
	325.149598	1367.310845	9.964000	-5.230000
	325.249603	1367.331131	9.986000	-4.930000
	325.353609	1367.331131	9.940000	-5.100000
	325.449615	1367.314427	9.970000	-5.240000
	325.549620	1367.335907	9.966000	-4.920000
	325.649626	1367.329941	9.944000	-5.150000
	325.749632	1367.337100	9.996000	-5.040000
	325.849638	1367.333520	9.940000	-5.130000
	325.949643	1367.320396	9.946000	-5.210000
	326.049649	1367.326362	9.978000	-5.050000
	326.199657	1367.325169	9.936000	-5.110000
	326.299663	1367.325169	9.984000	-5.100000
	326.399669	1367.325169	9.984000	-5.100000
	326.499675	1367.331135	9.962000	-5.050000
	326.599680	1367.327555	9.934000	-5.130000
	326.699686	1367.338295	9.984000	-5.010000
	326.799692	1367.339488	9.932000	-5.090000
	326.899698	1367.320397	9.962000	-5.260000
	326.999703	1367.334717	9.970000	-4.980000
	327.099709	1367.316820	9.936000	-5.250000
	327.199715	1367.307274	9.978000	-5.180000
	327.299720	1367.315627	9.952000	-5.030000
	327.402726	1367.313240	9.966000	-5.120000
	327.499732	1367.325173	9.968000	-5.000000
	327.599738	1367.331139	9.944000	-5.050000
	327.699743	1367.316821	9.980000	-5.220000
	327.799749	1367.337107	9.984000	-4.930000
	327.899755	1367.339494	9.916000	-5.080000
	327.999761	1367.335914	9.990000	-5.130000
	328.099766	1367.352621	9.952000	-4.960000
	328.249775	1367.323986	9.944000	-5.340000
	328.349781	1367.325179	9.986000	-5.090000
	328.449786	1367.332338	9.944000	-5.040000
	328.550792	1367.327565	9.966000	-5.140000
	328.649797	1367.327565	9.966000	-5.140000
	328.749804	1367.347852	9.972000	-4.930000
	328.852809	1367.350238	9.942000	-5.080000
	328.949815	1367.331148	9.970000	-5.260000
	329.051821	1367.340694	9.950000	-5.020000
	329.149826	1367.340694	9.942000	-5.100000
	329.254832	1367.333535	9.974000	-5.160000
	329.349838	1367.335921	9.952000	-5.080000
	329.449843	1367.320410	9.936000	-5.230000
	329.549849	1367.339503	9.976000	-4.940000
	329.651855	1367.345469	9.924000	-5.050000
	329.760861	1367.320413	9.970000	-5.310000
	329.849866	1367.357408	9.962000	-4.790000
	329.949872	1367.334738	9.952000	-5.290000
	330.050878	1367.334738	9.952000	-5.290000
	330.149883	1367.339511	9.984000	-5.060000
	330.250889	1367.341898	9.938000	-5.080000
	330.349895	1367.327580	9.970000	-5.220000
	330.449901	1367.339513	9.944000	-5.000000
	330.549906	1367.324001	9.972000	-5.230000
	330.649912	1367.347868	9.974000	-4.900000
	330.753918	1367.360994	9.914000	-4.990000
	330.849924	1367.353835	9.964000	-5.160000
	330.949929	1367.357415	9.964000	-5.070000
	331.049935	1367.347869	9.912000	-5.180000
	331.149940	1367.340710	9.976000	-5.160000
	331.249946	1367.363383	9.960000	-4.910000
	331.349952	1367.355031	9.928000	-5.170000
	331.449958	1367.356224	9.960000	-5.090000
	331.599967	1367.357417	9.956000	-5.090000
	331.699972	1367.322817	9.962000	-5.390000
	331.799978	1367.350264	9.958000	-4.870000
	331.899983	1367.345491	9.946000	-5.140000
	331.999989	1367.337139	9.978000	-5.170000
	332.099995	1367.355038	9.950000	-4.950000
	332.200001	1367.340720	9.934000	-5.220000
	332.350009	1367.343107	9.978000	-5.080000
	332.450015	1367.343107	9.978000	-5.080000
	332.550021	1367.353846	9.944000	-5.010000
	332.650026	1367.344301	9.952000	-5.180000
	332.750032	1367.351460	10.004000	-5.040000
	332.850038	1367.351460	9.928000	-5.100000
	332.950044	1367.339528	9.956000	-5.200000
	333.050049	1367.352654	9.990000	-4.990000
	333.150055	1367.363394	9.936000	-5.010000
	333.250061	1367.346689	9.962000	-5.240000
	333.350067	1367.358622	9.974000	-5.000000
	333.450072	1367.341918	9.934000	-5.240000
	333.550078	1367.325214	9.978000	-5.240000
	333.650084	1367.346693	9.946000	-4.920000
	333.750089	1367.327603	9.962000	-5.260000
	333.850095	1367.355050	9.992000	-4.870000
	333.953101	1367.352663	9.940000	-5.120000
	334.050107	1367.345504	9.976000	-5.160000
	334.150112	1367.350277	9.952000	-5.060000
	334.250118	1367.350277	9.952000	-5.060000
	334.350124	1367.329993	9.950000	-5.270000
	334.450130	1367.340733	9.998000	-5.010000
	334.550135	1367.324029	9.930000	-5.240000
	334.650141	1367.316870	9.986000	-5.160000
	334.750146	1367.332382	9.942000	-4.970000
	334.850152	1367.333575	9.942000	-5.090000
	334.950158	1367.325223	9.990000	-5.170000
	335.050164	1367.344316	9.936000	-4.940000
	335.150169	1367.326419	9.954000	-5.250000
	335.250175	1367.350285	9.968000	-4.900000
	335.350181	1367.345512	9.956000	-5.140000
	335.450187	1367.349092	9.972000	-5.070000
	335.550192	1367.371765	9.958000	-4.910000
	335.657198	1367.369379	9.954000	-5.120000
	335.750204	1367.381312	9.996000	-5.000000
	335.850210	1367.384892	9.930000	-5.070000
	335.950215	1367.370573	9.980000	-5.220000
	336.056221	1367.387280	9.952000	-4.960000
	336.150227	1367.387280	9.952000	-4.960000
	336.250232	1367.382507	9.948000	-5.140000
	336.350238	1367.390860	9.986000	-5.030000
	336.450244	1367.380121	9.928000	-5.190000
	336.550250	1367.375348	9.978000	-5.140000
	336.650255	1367.389668	9.946000	-4.980000
	336.750261	1367.364611	9.962000	-5.310000
	336.850267	1367.380125	9.970000	-4.970000
	336.950273	1367.377738	9.928000	-5.120000
	337.053278	1367.364613	9.972000	-5.210000
	337.150284	1367.376546	9.950000	-5.000000
	337.250289	1367.364614	9.964000	-5.200000
	337.350296	1367.369387	9.978000	-5.060000
	337.450301	1367.362228	9.928000	-5.160000
	337.550307	1367.356261	9.968000	-5.150000
	337.650312	1367.382515	9.974000	-4.880000
	337.750318	1367.365811	9.932000	-5.240000
	337.850324	1367.365811	9.932000	-5.240000
	338.000332	1367.365811	9.978000	-5.100000
	338.100338	1367.368197	9.934000	-5.080000
	338.200344	1367.361038	9.982000	-5.160000
	338.300350	1367.382518	9.950000	-4.920000
	338.400355	1367.369393	9.932000	-5.210000
	338.500361	1367.377746	9.978000	-5.030000
	338.600367	1367.378939	9.936000	-5.090000
	338.700373	1367.367007	9.962000	-5.200000
	338.800378	1367.378940	9.952000	-5.000000
	338.900384	1367.355077	9.952000	-5.300000
	339.000390	1367.364623	9.958000	-5.020000
	339.100396	1367.383716	9.932000	-4.940000
	339.200401	1367.371784	9.972000	-5.200000
	339.300407	1367.406393	9.954000	-4.810000
	339.404413	1367.372985	9.938000	-5.380000
	339.500418	1367.372985	9.980000	-5.100000
	339.599424	1367.369405	9.928000	-5.130000
	339.699430	1367.369405	9.928000	-5.130000
	339.799435	1367.364632	9.946000	-5.140000
	339.899441	1367.377759	9.958000	-4.990000
	339.999447	1367.363440	9.930000	-5.220000
	340.099452	1367.363440	9.976000	-5.100000
	340.199458	1367.367020	9.938000	-5.070000
	340.299464	1367.365827	9.988000	-5.110000
	340.399470	1367.364634	9.940000	-5.110000
	340.499475	1367.355088	9.980000	-5.180000
	340.603481	1367.353895	9.918000	-5.110000
	340.699487	1367.352702	9.980000	-5.110000
	340.799492	1367.370601	9.954000	-4.950000
	340.899498	1367.372988	9.958000	-5.080000
	340.999504	1367.383728	9.954000	-5.010000
	341.099510	1367.390888	9.966000	-5.040000
	341.250518	1367.381342	9.942000	-5.180000
	341.399527	1367.393275	9.976000	-5.000000
	341.503533	1367.383729	9.934000	-5.180000
	341.609539	1367.398049	9.970000	-4.980000
	341.699544	1367.384923	9.932000	-5.210000
	341.799550	1367.377764	9.976000	-5.160000
	341.899556	1367.394471	9.962000	-4.960000
	341.999561	1367.378959	9.962000	-5.230000
	342.149570	1367.394472	9.970000	-4.970000
	342.249576	1367.389699	9.934000	-5.140000
	342.349581	1367.393279	9.984000	-5.070000
	342.449587	1367.406406	9.942000	-4.990000
	342.549592	1367.406406	9.998000	-5.100000
	342.649599	1367.415953	9.958000	-5.020000
	342.749604	1367.400441	9.962000	-5.230000
	342.899613	1367.400441	9.962000	-5.230000
	342.999619	1367.419534	9.964000	-4.940000
	343.099624	1367.394477	9.940000	-5.310000
	343.199630	1367.400444	9.968000	-5.050000
	343.299635	1367.390898	9.942000	-5.180000
	343.399642	1367.389705	9.972000	-5.110000
	343.499647	1367.402831	9.946000	-4.990000
	343.599653	1367.373002	9.966000	-5.350000
	343.699658	1367.395676	9.956000	-4.910000
	343.799664	1367.371813	9.938000	-5.300000
	343.899670	1367.400454	9.980000	-4.860000
	343.999676	1367.399261	9.952000	-5.110000
	344.099681	1367.393294	9.982000	-5.150000
	344.199687	1367.392101	9.940000	-5.110000
	344.299693	1367.377782	9.958000	-5.220000
	344.401699	1367.395683	9.986000	-4.950000
	344.499704	1367.375398	9.930000	-5.270000
	344.599710	1367.375398	9.930000	-5.270000
	344.699716	1367.377785	9.986000	-5.080000
	344.799721	1367.362273	9.916000	-5.230000
	344.899727	1367.364660	9.976000	-5.080000
	344.999733	1367.358694	9.930000	-5.150000
	345.099739	1367.377787	9.976000	-4.940000
	345.199744	1367.401654	9.948000	-4.900000
	345.299750	1367.387336	9.968000	-5.220000
	345.399756	1367.405236	9.960000	-4.950000
	345.499762	1367.387338	9.942000	-5.250000
	345.599767	1367.399271	9.968000	-5.000000
	345.699773	1367.382566	9.946000	-5.240000
	345.799778	1367.374214	9.982000	-5.170000
	345.899785	1367.374214	9.920000	-5.100000
	345.999790	1367.375407	9.956000	-5.090000
	346.104796	1367.387340	9.964000	-5.000000
	346.199801	1367.370635	9.942000	-5.240000
	346.299807	1367.373022	9.974000	-5.080000
	346.399813	1367.373022	9.974000	-5.080000
	346.499819	1367.376602	9.940000	-5.070000
	346.599824	1367.377795	9.970000	-5.090000
	346.699830	1367.392115	9.956000	-4.980000
	346.799836	1367.378989	9.964000	-5.210000
	346.899842	1367.387342	9.964000	-5.030000
	346.999847	1367.364672	9.948000	-5.290000
	347.099853	1367.381379	9.968000	-4.960000
	347.199859	1367.367060	9.948000	-5.220000
	347.299864	1367.374220	9.976000	-5.040000
	347.399870	1367.381380	9.924000	-5.040000
	347.499876	1367.380186	9.992000	-5.110000
	347.599882	1367.388539	9.932000	-5.030000
	347.702888	1367.377800	9.956000	-5.190000
	347.799893	1367.410023	9.968000	-4.830000
	347.899899	1367.398090	9.940000	-5.200000
	347.999905	1367.386158	9.976000	-5.200000
	348.099910	1367.382578	9.922000	-5.130000
	348.199916	1367.383771	9.970000	-5.090000
	348.299922	1367.396898	9.964000	-4.990000
	348.399927	1367.377807	9.932000	-5.260000
	348.499933	1367.388547	9.974000	-5.010000
	348.599939	1367.386160	9.934000	-5.120000
	348.749948	1367.414802	9.974000	-4.860000
	348.849953	1367.405256	9.934000	-5.180000
	348.949959	1367.401676	9.972000	-5.130000
	349.049964	1367.408836	9.942000	-5.040000
	349.149970	1367.405256	9.990000	-5.130000
	349.249976	1367.412416	9.934000	-5.040000
	349.399984	1367.398097	9.970000	-5.220000
	349.499990	1367.411224	9.948000	-4.990000
	349.599996	1367.411224	9.948000	-4.990000
	349.700002	1367.405257	9.956000	-5.150000
	349.800007	1367.410031	9.950000	-5.060000
	349.900013	1367.394519	9.954000	-5.230000
	350.000019	1367.407645	9.974000	-4.990000
	350.100025	1367.413612	9.952000	-5.050000
	350.200030	1367.432706	9.980000	-4.940000
	350.300036	1367.406456	9.956000	-5.320000
	350.400042	1367.344417	9.958000	-5.620000
	350.500048	1367.357543	9.928000	-4.990000
	350.600053	1367.364703	9.980000	-5.040000
	350.700059	1367.376636	9.928000	-5.000000
	350.800065	1367.368283	9.982000	-5.170000
	350.900070	1367.373057	9.944000	-5.060000
	351.006076	1367.376636	9.968000	-5.070000
	351.100082	1367.384989	9.944000	-5.030000
	351.202087	1367.388569	9.970000	-5.070000
	351.300093	1367.388569	9.970000	-5.070000
	351.400099	1367.399309	9.942000	-5.010000
	351.500104	1367.401696	9.966000	-5.080000
	351.603111	1367.414823	9.942000	-4.990000
	351.700116	1367.402890	9.954000	-5.200000
	351.800122	1367.423177	9.948000	-4.930000
	351.900127	1367.412438	9.962000	-5.190000
	352.000133	1367.423178	9.950000	-5.010000
	352.100139	1367.410053	9.948000	-5.210000
	352.200145	1367.417212	9.996000	-5.040000
	352.300150	1367.401700	9.940000	-5.230000
	352.400156	1367.418407	9.974000	-4.960000
	352.500162	1367.425567	9.938000	-5.040000
	352.606168	1367.424374	9.970000	-5.110000
	352.700173	1367.433921	9.938000	-5.020000
	352.800179	1367.420795	9.956000	-5.210000
	352.903185	1367.427955	9.930000	-5.040000
	353.000190	1367.411250	9.934000	-5.240000
	353.100196	1367.418410	9.944000	-5.040000
	353.200202	1367.418410	9.944000	-5.040000
	353.300208	1367.413637	9.942000	-5.140000
	353.402214	1367.423183	9.986000	-5.020000
	353.500219	1367.405285	9.948000	-5.250000
	353.600225	1367.414832	9.972000	-5.020000
	353.700231	1367.395740	9.926000	-5.260000
	353.800236	1367.394547	9.978000	-5.110000
	353.900242	1367.390967	9.918000	-5.130000
	354.001248	1367.390967	9.952000	-5.100000
	354.100254	1367.401707	9.932000	-5.010000
	354.200259	1367.398127	9.960000	-5.130000
	354.300265	1367.407674	9.940000	-5.020000
	354.400270	1367.399321	9.966000	-5.170000
	354.500276	1367.420802	9.944000	-4.920000
	354.600282	1367.410062	9.950000	-5.190000
	354.700288	1367.433930	9.962000	-4.900000
	354.800293	1367.405294	9.940000	-5.340000
	354.950302	1367.406487	9.972000	-5.090000
	355.050308	1367.412454	9.944000	-5.050000
	355.150313	1367.412454	9.944000	-5.050000
	355.250319	1367.424387	9.976000	-5.000000
	355.350325	1367.412455	9.910000	-5.200000
	355.450331	1367.427968	9.956000	-4.970000
	355.550336	1367.436322	9.914000	-5.030000
	355.650342	1367.436322	9.992000	-5.100000
	355.750348	1367.426776	9.928000	-5.180000
	355.850353	1367.422002	9.964000	-5.140000
	355.950359	1367.426776	9.934000	-5.060000
	356.050365	1367.427969	9.988000	-5.090000
	356.150371	1367.448257	9.936000	-4.930000
	356.250376	1367.432744	9.962000	-5.230000
	356.350382	1367.438711	9.956000	-5.050000
	356.455388	1367.429165	9.936000	-5.180000
	356.550394	1367.444679	9.976000	-4.970000
	356.650399	1367.442292	9.928000	-5.120000
	356.750405	1367.436326	9.980000	-5.150000
	356.850410	1367.432746	9.920000	-5.130000
	356.950417	1367.432746	9.920000	-5.130000
	357.049422	1367.423200	9.952000	-5.180000
	357.149428	1367.432746	9.948000	-5.020000
	357.249434	1367.426780	10.000000	-5.150000
	357.349439	1367.437520	9.960000	-5.010000
	357.449445	1367.414849	9.978000	-5.290000
	357.549451	1367.432750	9.964000	-4.950000
	357.649457	1367.417237	9.950000	-5.230000
	357.749462	1367.429171	9.942000	-5.000000
	357.849468	1367.400534	9.950000	-5.340000
	357.953474	1367.410081	9.960000	-5.020000
	358.049479	1367.395762	9.946000	-5.220000
	358.149485	1367.416050	9.944000	-4.930000
	358.249491	1367.405310	9.928000	-5.190000
	358.349496	1367.411277	9.970000	-5.050000
	358.449502	1367.425597	9.928000	-4.980000
	358.549508	1367.424404	9.982000	-5.110000
	358.649514	1367.430371	9.936000	-5.050000
	358.749519	1367.430371	9.936000	-5.050000
	358.849525	1367.418438	9.972000	-5.200000
	358.949531	1367.422018	9.928000	-5.070000
	359.049536	1367.408892	9.958000	-5.210000
	359.149542	1367.430373	9.950000	-4.920000
	359.249548	1367.420827	9.958000	-5.180000
	359.349554	1367.431567	9.950000	-5.010000
	359.449559	1367.420828	9.922000	-5.190000
	359.549565	1367.442309	9.974000	-4.920000
	359.655571	1367.430376	9.932000	-5.200000
	359.749577	1367.429183	9.978000	-5.110000
	359.849582	1367.427990	9.940000	-5.110000
	359.949588	1367.431570	9.962000	-5.070000
	360.049593	1367.431570	9.932000	-5.100000
	360.149600	1367.412478	9.966000	-5.260000
	360.249605	1367.417251	9.930000	-5.060000
	360.349611	1367.419638	9.954000	-5.080000
	360.499619	1367.441119	9.928000	-4.920000
	360.599625	1367.441119	9.928000	-4.920000
	360.699631	1367.439926	9.946000	-5.110000
	360.799636	1367.450666	9.968000	-5.010000
	360.899642	1367.437540	9.952000	-5.210000
	360.999648	1367.454247	9.974000	-4.960000
	361.099654	1367.445894	9.934000	-5.170000
	361.199659	1367.444701	9.974000	-5.110000
	361.299665	1367.459022	9.914000	-4.980000
	361.399671	1367.457828	9.980000	-5.110000
	361.499677	1367.462602	9.936000	-5.060000
	361.599682	1367.457828	9.958000	-5.140000
	361.699688	1367.472149	9.946000	-4.980000
	361.799694	1367.461410	9.956000	-5.190000
	361.899700	1367.464990	9.952000	-5.070000
	361.999705	1367.464990	9.950000	-5.100000
	362.102711	1367.478117	9.962000	-4.990000
	362.199717	1367.462604	9.964000	-5.230000
	362.299722	1367.480506	9.940000	-4.950000
	362.399728	1367.450675	9.942000	-5.350000
	362.499734	1367.450675	9.942000	-5.350000
	362.599740	1367.454255	9.954000	-5.070000
	362.699745	1367.464995	9.952000	-5.010000
	362.799751	1367.467382	9.980000	-5.080000
	362.899756	1367.469769	9.934000	-5.080000
	362.999763	1367.444711	9.972000	-5.310000
	363.099768	1367.455451	9.948000	-5.010000
	363.199774	1367.443518	9.950000	-5.200000
	363.299779	1367.451872	9.950000	-5.030000
	363.399785	1367.445905	9.940000	-5.150000
	363.499791	1367.461419	9.948000	-4.970000
	363.603797	1367.455453	9.924000	-5.150000
	363.699802	1367.465000	9.950000	-5.020000
	363.799808	1367.467386	9.930000	-5.080000
	363.899814	1367.469773	9.968000	-5.080000
	363.999820	1367.482900	9.944000	-4.990000
	364.099825	1367.459035	9.952000	-5.300000
	364.199831	1367.467389	9.948000	-5.030000
	364.299837	1367.457843	9.952000	-5.180000
	364.449845	1367.476937	9.958000	-4.940000
	364.549851	1367.459038	9.936000	-5.250000
	364.649857	1367.474552	9.960000	-4.970000
	364.749863	1367.454267	9.928000	-5.270000
	364.849868	1367.467394	9.968000	-4.990000
	364.949874	1367.461428	9.932000	-5.150000
	365.049880	1367.449495	9.974000	-5.200000
	365.199888	1367.463815	9.930000	-4.980000
	365.299894	1367.453076	9.964000	-5.190000
	365.399899	1367.476945	9.962000	-4.900000
	365.499906	1367.472171	9.954000	-5.140000
	365.606912	1367.472171	9.960000	-5.100000
	365.703917	1367.472171	9.960000	-5.100000
	365.799922	1367.466205	9.926000	-5.150000
	365.899928	1367.454272	9.978000	-5.200000
	365.999934	1367.459045	9.916000	-5.060000
	366.104940	1367.450692	9.962000	-5.170000
	366.199945	1367.466206	9.934000	-4.970000
	366.299951	1367.457853	9.964000	-5.170000
	366.399957	1367.478141	9.954000	-4.930000
	366.499962	1367.453083	9.936000	-5.310000
	366.599968	1367.469791	9.940000	-4.960000
	366.703974	1367.456665	9.936000	-5.210000
	366.799980	1367.478146	9.978000	-4.920000
	366.899985	1367.487693	9.940000	-5.020000
	366.999991	1367.482920	9.988000	-5.140000
	367.099997	1367.479340	9.912000	-5.130000
	367.207003	1367.474567	9.952000	-5.140000
	367.300008	1367.482920	9.932000	-5.030000
	367.400014	1367.461442	9.948000	-5.280000
	367.550023	1367.478149	9.958000	-4.960000
	367.650028	1367.468603	9.948000	-5.180000
	367.750034	1367.468603	9.948000	-5.180000
	367.850040	1367.479344	9.968000	-5.010000
	367.950046	1367.463831	9.928000	-5.230000
	368.050051	1367.469798	9.942000	-5.050000
	368.150057	1367.453092	9.942000	-5.240000
	368.250062	1367.468606	9.956000	-4.970000
	368.350069	1367.457866	9.964000	-5.190000
	368.450074	1367.473381	9.968000	-4.970000
	368.550080	1367.449516	9.912000	-5.300000
	368.653086	1367.466223	9.972000	-4.960000
	368.750091	1367.461450	9.938000	-5.140000
	368.850097	1367.474577	9.974000	-4.990000
	368.950103	1367.473384	9.938000	-5.110000
	369.050108	1367.469804	9.970000	-5.130000
	369.150114	1367.481738	9.950000	-5.000000
	369.250120	1367.461452	9.946000	-5.270000
	369.350126	1367.469806	9.954000	-5.030000
	369.450131	1367.457873	9.932000	-5.200000
	369.600140	1367.467420	9.974000	-5.020000
	369.700146	1367.467420	9.916000	-5.100000
	369.800151	1367.465033	9.972000	-5.120000
	369.900157	1367.476967	9.942000	-5.000000
	370.000163	1367.468614	9.972000	-5.170000
	370.100168	1367.482935	9.930000	-4.980000
	370.200174	1367.482935	9.930000	-4.980000
	370.350183	1367.484128	9.968000	-5.090000
	370.450189	1367.485322	9.948000	-5.090000
	370.550194	1367.462650	9.950000	-5.290000
	370.650200	1367.480551	9.956000	-4.950000
	370.700203	1367.461459	9.930000	-5.260000
	370.850211	1367.467425	9.966000	-5.050000
	370.950217	1367.448333	9.936000	-5.260000
	371.051223	1367.453107	9.974000	-5.060000
	371.150229	1367.466234	9.916000	-4.990000
	371.250234	1367.449528	9.950000	-5.240000
	371.350240	1367.469816	9.940000	-4.930000
	371.450246	1367.443565	9.940000	-5.320000
	371.550251	1367.455499	9.944000	-5.000000
	371.650257	1367.443566	9.928000	-5.200000
	371.750263	1367.450726	9.970000	-5.040000
	371.800266	1367.462660	9.926000	-5.000000
	371.950274	1367.474594	9.954000	-5.000000
	372.050280	1367.479367	9.932000	-5.060000
	372.150286	1367.460275	9.930000	-5.260000
	372.250291	1367.476983	9.952000	-4.960000
	372.373299	1367.461470	9.938000	-5.230000
	372.450303	1367.475791	9.950000	-4.980000
	372.600311	1367.450733	9.910000	-5.310000
	372.700317	1367.469827	9.980000	-4.940000
	372.800323	1367.459088	9.922000	-5.190000
	372.900329	1367.448348	9.970000	-5.190000
	373.000334	1367.448348	9.970000	-5.190000
	373.100340	1367.471023	9.914000	-4.910000
	373.200346	1367.451931	9.936000	-5.260000
	373.300352	1367.478187	9.946000	-4.880000
	373.400357	1367.471027	9.944000	-5.160000
	373.500363	1367.481767	9.950000	-5.010000
	373.600368	1367.480574	9.906000	-5.110000
	373.700375	1367.475801	9.950000	-5.140000
	373.800380	1367.493702	9.938000	-4.950000
	373.900386	1367.488929	9.942000	-5.140000
	374.000391	1367.498476	9.970000	-5.020000
	374.100397	1367.479383	9.930000	-5.260000
	374.206403	1367.479383	9.956000	-5.100000
	374.300409	1367.485350	9.926000	-5.050000
	374.400414	1367.468644	9.942000	-5.240000
	374.500420	1367.498481	9.978000	-4.850000
	374.599426	1367.499675	9.940000	-5.090000
	374.699431	1367.491321	9.950000	-5.170000
	374.799437	1367.515191	9.956000	-4.900000
	374.899443	1367.496098	9.922000	-5.260000
	375.049451	1367.509226	9.964000	-4.990000
	375.149457	1367.502065	9.928000	-5.160000
	375.249463	1367.490132	9.978000	-5.200000
	375.349469	1367.498486	9.966000	-5.030000
	375.449474	1367.485360	9.936000	-5.210000
	375.549480	1367.492520	9.978000	-5.040000
	375.649486	1367.496100	9.926000	-5.070000
	375.749492	1367.492520	9.944000	-5.130000
	375.899500	1367.493713	9.942000	-5.090000
	375.999506	1367.475814	9.920000	-5.250000
	376.099512	1367.485361	9.956000	-5.020000
	376.199517	1367.485361	9.956000	-5.020000
	376.299523	1367.499682	9.922000	-4.980000
	376.399529	1367.481783	9.940000	-5.250000
	376.499535	1367.506846	9.966000	-4.890000
	376.599540	1367.496106	9.948000	-5.190000
	376.699546	1367.509233	9.962000	-4.990000
	376.799551	1367.534297	9.918000	-4.890000
	376.899558	1367.515204	9.936000	-5.260000
	376.999563	1367.527138	9.940000	-5.000000
	377.099569	1367.522364	9.940000	-5.140000
	377.199574	1367.525945	9.960000	-5.070000
	377.299580	1367.522365	9.936000	-5.130000
	377.402586	1367.514011	9.942000	-5.170000
	377.499592	1367.515204	9.938000	-5.090000
	377.599597	1367.517591	9.906000	-5.080000
	377.699603	1367.498498	9.952000	-5.260000
	377.799609	1367.498498	9.952000	-5.260000
	377.899615	1367.517594	9.972000	-4.940000
	377.999620	1367.508047	9.930000	-5.180000
	378.099626	1367.500887	9.966000	-5.160000
	378.199632	1367.500887	9.928000	-5.100000
	378.299637	1367.482987	9.944000	-5.250000
	378.400643	1367.493728	9.964000	-5.010000
	378.500649	1367.500888	9.930000	-5.040000
	378.599655	1367.478216	9.944000	-5.290000
	378.699660	1367.493731	9.946000	-4.970000
	378.799666	1367.482991	9.920000	-5.190000
	378.908672	1367.477024	9.968000	-5.150000
	379.000678	1367.493732	9.934000	-4.960000
	379.099683	1367.477026	9.958000	-5.240000
	379.199689	1367.484186	9.964000	-5.040000
	379.299695	1367.482993	9.928000	-5.110000
	379.399701	1367.480606	9.960000	-5.120000
	379.499706	1367.494927	9.904000	-4.980000
	379.606712	1367.494927	9.904000	-4.980000
	379.699718	1367.492541	9.938000	-5.120000
	379.799723	1367.514023	9.962000	-4.920000
	379.899729	1367.504476	9.930000	-5.180000
	379.999735	1367.512830	9.954000	-5.030000
	380.106741	1367.521184	9.918000	-5.030000
	380.199746	1367.506864	9.914000	-5.220000
	380.299752	1367.529540	9.960000	-4.910000
	380.399758	1367.536701	9.898000	-5.040000
	380.503764	1367.527154	9.932000	-5.180000
	380.599769	1367.547443	9.914000	-4.930000
	380.699775	1367.539089	9.910000	-5.170000
	380.799780	1367.537896	9.950000	-5.110000
	380.899786	1367.545057	9.932000	-5.040000
	381.003792	1367.527157	9.922000	-5.250000
	381.118799	1367.525963	9.970000	-5.110000
	381.199803	1367.547446	9.902000	-4.920000
	381.349812	1367.536706	9.950000	-5.190000
	381.449818	1367.545060	9.944000	-5.030000
	381.549823	1367.540286	9.914000	-5.140000
	381.653830	1367.541480	9.942000	-5.090000
	381.757835	1367.558188	9.926000	-4.960000
	381.863842	1367.541481	9.912000	-5.240000
	381.949846	1367.533128	9.956000	-5.170000
	382.099855	1367.533128	9.956000	-5.170000
	382.199861	1367.537902	9.900000	-5.060000
	382.299866	1367.520002	9.918000	-5.250000
	382.399872	1367.534323	9.960000	-4.980000
	382.499878	1367.530743	9.922000	-5.130000
	382.599884	1367.527163	9.950000	-5.130000
	382.699889	1367.557001	9.944000	-4.850000
	382.799895	1367.549841	9.920000	-5.160000
	382.899900	1367.536714	9.952000	-5.210000
	382.999907	1367.551035	9.926000	-4.980000
	383.099912	1367.523589	9.924000	-5.330000
	383.149915	1367.535524	9.964000	-5.000000
	383.299923	1367.540298	9.922000	-5.060000
	383.399929	1367.527171	9.952000	-5.210000
	383.499935	1367.535525	9.934000	-5.030000
	383.549938	1367.510465	9.910000	-5.310000
	383.699946	1367.510465	9.910000	-5.310000
	383.799952	1367.514046	9.958000	-5.070000
	383.899958	1367.521206	9.912000	-5.040000
	383.999964	1367.522400	9.940000	-5.090000
	384.099969	1367.542689	9.922000	-4.930000
	384.199975	1367.517629	9.940000	-5.310000
	384.299981	1367.522403	9.960000	-5.060000
	384.399986	1367.536724	9.940000	-4.980000
	384.499992	1367.521211	9.930000	-5.230000
	384.599998	1367.541500	9.962000	-4.930000
	384.700004	1367.540307	9.910000	-5.110000
	384.800009	1367.525987	9.958000	-5.220000
	384.900015	1367.547470	9.940000	-4.920000
	385.000021	1367.535536	9.942000	-5.200000
	385.100027	1367.533149	9.956000	-5.120000
	385.206033	1367.540310	9.930000	-5.040000
	385.300038	1367.530763	9.948000	-5.180000
	385.400043	1367.554633	9.948000	-4.900000
	385.500050	1367.554633	9.948000	-4.900000
	385.600055	1367.546279	9.928000	-5.170000
	385.700061	1367.559407	9.956000	-4.990000
	385.800066	1367.561794	9.934000	-5.080000
	385.900072	1367.549861	9.954000	-5.200000
	386.000078	1367.566569	9.914000	-4.960000
	386.100084	1367.547476	9.934000	-5.260000
	386.206090	1367.548669	9.948000	-5.090000
	386.300095	1367.536736	9.906000	-5.200000
	386.400101	1367.528382	9.958000	-5.170000
	386.501107	1367.543897	9.920000	-4.970000
	386.600112	1367.523611	9.906000	-5.270000
	386.700118	1367.543900	9.986000	-4.930000
	386.800124	1367.543900	9.986000	-4.930000
	386.904130	1367.553447	9.912000	-5.020000
	387.050138	1367.562995	9.962000	-5.020000
	387.106141	1367.546288	9.948000	-5.240000
	387.300152	1367.546288	9.948000	-5.240000
	387.400158	1367.570158	9.942000	-4.900000
	387.500164	1367.549872	9.936000	-5.270000
	387.600170	1367.564193	9.926000	-4.980000
	387.700175	1367.541520	9.924000	-5.290000
	387.800181	1367.549874	9.950000	-5.030000
	387.907187	1367.549874	9.914000	-5.100000
	388.000192	1367.536747	9.938000	-5.210000
	388.100198	1367.557037	9.912000	-4.930000
	388.200204	1367.534363	9.900000	-5.290000
	388.300210	1367.546298	9.954000	-5.000000
	388.400215	1367.565394	9.910000	-4.940000
	388.500221	1367.541527	9.934000	-5.300000
	388.600227	1367.563010	9.944000	-4.920000
	388.750235	1367.573752	9.908000	-5.010000
	388.850241	1367.557045	9.928000	-5.240000
	388.950247	1367.573753	9.946000	-4.960000
	389.050252	1367.563013	9.918000	-5.190000
	389.150258	1367.547499	9.936000	-5.230000
	389.250264	1367.567789	9.926000	-4.930000
	389.350269	1367.560629	9.912000	-5.160000
	389.450275	1367.560629	9.912000	-5.160000
	389.550281	1367.551081	9.936000	-5.180000
	389.650287	1367.571371	9.930000	-4.930000
	389.750292	1367.549891	9.900000	-5.280000
	389.850298	1367.554665	9.962000	-5.060000
	389.950304	1367.568986	9.908000	-4.980000
	390.050310	1367.564213	9.932000	-5.140000
	390.150315	1367.572567	9.946000	-5.030000
	390.255322	1367.574954	9.898000	-5.080000
	390.350327	1367.549894	9.946000	-5.310000
	390.450333	1367.574958	9.948000	-4.890000
	390.600341	1367.582119	9.914000	-5.040000
	390.700347	1367.558252	9.934000	-5.300000
	390.800353	1367.567800	9.962000	-5.020000
	390.900358	1367.570187	9.898000	-5.080000
	391.000364	1367.559446	9.938000	-5.190000
	391.050367	1367.574961	9.942000	-4.970000
	391.200376	1367.572575	9.904000	-5.120000
	391.300381	1367.563028	9.938000	-5.180000
	391.400387	1367.570188	9.964000	-5.040000
	391.500392	1367.570188	9.964000	-5.040000
	391.600398	1367.567801	9.894000	-5.120000
	391.700404	1367.555868	9.940000	-5.200000
	391.800410	1367.570189	9.918000	-4.980000
	391.900415	1367.567803	9.910000	-5.120000
	391.999421	1367.567803	9.936000	-5.100000
	392.099427	1367.588092	9.918000	-4.930000
	392.199432	1367.582125	9.900000	-5.150000
	392.299438	1367.583319	9.952000	-5.090000
	392.399444	1367.591673	9.930000	-5.030000
	392.499450	1367.588093	9.906000	-5.130000
	392.599455	1367.589286	9.944000	-5.090000
	392.699461	1367.596447	9.908000	-5.040000
	392.804467	1367.570194	9.914000	-5.320000
	392.899473	1367.580935	9.970000	-5.010000
	392.999478	1367.598838	9.930000	-4.950000
	393.099484	1367.579744	9.906000	-5.260000
	393.199490	1367.572583	9.972000	-5.160000
	393.299495	1367.572583	9.972000	-5.160000
	393.399501	1367.591680	9.904000	-4.940000
	393.499507	1367.579746	9.932000	-5.200000
	393.599513	1367.573778	9.952000	-5.150000
	393.699518	1367.591681	9.918000	-4.950000
	393.799524	1367.572587	9.890000	-5.260000
	393.899530	1367.579748	9.962000	-5.040000
	393.999536	1367.595264	9.906000	-4.970000
	394.099541	1367.579750	9.914000	-5.230000
	394.199547	1367.591685	9.966000	-5.000000
	394.299552	1367.606007	9.902000	-4.980000
	394.399559	1367.588106	9.914000	-5.250000
	394.506565	1367.594073	9.954000	-5.050000
	394.599570	1367.604815	9.944000	-5.010000
	394.699575	1367.573788	9.890000	-5.360000
	394.799581	1367.595272	9.952000	-4.920000
	394.899587	1367.597659	9.918000	-5.080000
	394.999593	1367.582145	9.912000	-5.230000
	395.099598	1367.569017	9.966000	-5.210000
	395.199604	1367.596469	9.928000	-4.870000
	395.299610	1367.601243	9.902000	-5.060000
	395.449618	1367.583342	9.944000	-5.250000
	395.549624	1367.602439	9.966000	-4.940000
	395.649630	1367.602439	9.966000	-4.940000
	395.749636	1367.614374	9.904000	-5.000000
	395.849641	1367.598860	9.938000	-5.230000
	395.949647	1367.607214	9.952000	-5.030000
	396.049653	1367.608408	9.928000	-5.090000
	396.149659	1367.595280	9.900000	-5.210000
	396.249664	1367.597667	9.954000	-5.080000
	396.349670	1367.604828	9.914000	-5.040000
	396.449676	1367.601248	9.934000	-5.130000
	396.549681	1367.601248	9.956000	-5.100000
	396.649687	1367.617957	9.926000	-4.960000
	396.749693	1367.607216	9.894000	-5.190000
	396.849699	1367.535625	10.122000	-5.700000
	396.951705	1367.505793	10.064000	-5.350000
	397.049710	1367.481927	10.036000	-5.300000
	397.149715	1367.436587	10.068000	-5.480000
	397.249722	1367.421074	10.066000	-5.230000
	397.349727	1367.404369	10.034000	-5.240000
	397.449733	1367.376926	10.042000	-5.330000
	397.549738	1367.370960	10.076000	-5.150000
	397.649744	1367.376926	10.026000	-5.050000
	397.749750	1367.342326	10.042000	-5.390000
	397.849756	1367.342326	10.042000	-5.390000
	397.999764	1367.331587	10.064000	-5.190000
	398.099770	1367.348293	10.038000	-4.960000
	398.199776	1367.332782	10.042000	-5.230000
	398.299781	1367.316078	10.054000	-5.240000
	398.399787	1367.328011	10.022000	-5.000000
	398.499793	1367.314886	10.018000	-5.210000
	398.599799	1367.324432	10.074000	-5.020000
	398.699804	1367.338751	10.026000	-4.980000
	398.799810	1367.329206	10.036000	-5.180000
	398.899816	1367.320853	10.070000	-5.170000
	398.999822	1367.331593	10.044000	-5.010000
	399.099827	1367.316082	10.036000	-5.230000
	399.199833	1367.319661	10.088000	-5.070000
	399.299839	1367.326821	10.034000	-5.040000
	399.399844	1367.302958	10.028000	-5.300000
	399.449847	1367.298186	10.060000	-5.140000
	399.599856	1367.298186	10.060000	-5.140000
	399.699862	1367.325632	10.040000	-4.870000
	399.799867	1367.311314	10.022000	-5.220000
	399.899873	1367.305348	10.066000	-5.150000
	399.999879	1367.328021	10.038000	-4.910000
	400.099885	1367.322055	10.006000	-5.150000
	400.199890	1367.318476	10.076000	-5.130000
	400.299896	1367.328022	10.056000	-5.020000
	400.399901	1367.310124	10.010000	-5.250000
	400.499907	1367.307738	10.070000	-5.120000
	400.599913	1367.330411	10.036000	-4.910000
	400.699919	1367.320865	10.024000	-5.180000
	400.799924	1367.332798	10.070000	-5.000000
	400.901930	1367.333991	10.034000	-5.090000
	400.999936	1367.316094	9.998000	-5.250000
	401.099942	1367.332800	10.060000	-4.960000
	401.199947	1367.345926	10.028000	-4.990000
	401.299953	1367.328029	10.030000	-5.250000
	401.399959	1367.333995	10.058000	-5.050000
	401.499964	1367.342348	10.032000	-5.030000
	401.599970	1367.342348	10.032000	-5.030000
	401.699976	1367.326837	10.032000	-5.230000
	401.799982	1367.322064	10.062000	-5.140000
	401.899987	1367.313712	10.020000	-5.170000
	401.999993	1367.304166	10.054000	-5.180000
	402.099999	1367.324452	10.040000	-4.930000
	402.200005	1367.325645	10.010000	-5.090000
	402.309011	1367.324452	10.070000	-5.110000
	402.400016	1367.351899	10.048000	-4.870000
	402.500021	1367.342353	10.004000	-5.180000
	402.600028	1367.335194	10.064000	-5.160000
	402.700033	1367.356674	10.038000	-4.920000
	402.800039	1367.356674	10.038000	-4.920000
	402.900044	1367.351901	10.014000	-5.140000
	403.000050	1367.343549	10.080000	-5.170000
	403.100056	1367.359062	10.014000	-4.970000
	403.200062	1367.337585	10.022000	-5.280000
	403.300067	1367.344744	10.050000	-5.040000
	403.400073	1367.365031	10.022000	-4.930000
	403.500079	1367.351906	10.012000	-5.210000
	403.600085	1367.350713	10.062000	-5.110000
	403.704091	1367.357872	10.048000	-5.040000
	403.800096	1367.353099	10.016000	-5.140000
	403.903102	1367.332816	10.058000	-5.270000
	404.000107	1367.345942	10.058000	-4.990000
	404.100113	1367.362648	10.030000	-4.960000
	404.200119	1367.332820	10.040000	-5.350000
	404.300125	1367.339979	10.072000	-5.040000
	404.400130	1367.363846	10.030000	-4.900000
	404.550139	1367.363846	10.030000	-4.900000
	404.600142	1367.341176	10.022000	-5.290000
	404.750150	1367.342369	10.080000	-5.090000
	404.850156	1367.363849	10.036000	-4.920000
	404.950162	1367.350724	10.008000	-5.210000
	405.050168	1367.334020	10.068000	-5.240000
	405.150173	1367.355500	10.048000	-4.920000
	405.252179	1367.345954	10.020000	-5.180000
	405.350184	1367.329250	10.052000	-5.240000
	405.450191	1367.357890	10.066000	-4.860000
	405.550196	1367.342379	10.000000	-5.230000
	405.652202	1367.334027	10.042000	-5.170000
	405.750207	1367.338800	10.050000	-5.060000
	405.855214	1367.353119	10.014000	-4.980000
	405.950219	1367.329256	10.024000	-5.300000
	406.050225	1367.329256	10.024000	-5.300000
	406.150230	1367.324483	10.078000	-5.140000
	406.250236	1367.344770	10.042000	-4.930000
	406.350242	1367.348349	10.026000	-5.070000
	406.454248	1367.345963	10.056000	-5.120000
	406.550253	1367.354316	10.032000	-5.030000
	406.655259	1367.347157	10.014000	-5.160000
	406.750265	1367.331645	10.048000	-5.230000
	406.852271	1367.351932	10.052000	-4.930000
	406.950276	1367.366251	10.030000	-4.980000
	407.054282	1367.343581	10.032000	-5.290000
	407.155288	1367.355514	10.074000	-5.000000
	407.250293	1367.378188	10.026000	-4.910000
	407.350299	1367.373415	10.024000	-5.140000
	407.455305	1367.366255	10.060000	-5.160000
	407.554311	1367.380575	10.054000	-4.980000
	407.659317	1367.381769	10.038000	-5.090000
	407.750322	1367.363871	10.040000	-5.250000
	407.900331	1367.379384	10.060000	-4.970000
	408.000336	1367.390124	10.020000	-5.010000
	408.100342	1367.368646	10.042000	-5.280000
	408.200348	1367.368646	10.042000	-5.280000
	408.300354	1367.376999	10.048000	-5.030000
	408.400359	1367.396093	10.044000	-4.940000
	408.500365	1367.371036	10.000000	-5.310000
	408.600370	1367.374616	10.042000	-5.070000
	408.700377	1367.404451	10.022000	-4.850000
	408.800382	1367.384167	10.026000	-5.270000
	408.900388	1367.393713	10.074000	-5.020000
	409.036396	1367.391327	10.006000	-5.120000
	409.050396	1367.400873	10.054000	-5.020000
	409.252408	1367.405646	10.004000	-5.060000
	409.351414	1367.387748	10.022000	-5.250000
	409.451419	1367.390135	10.058000	-5.080000
	409.568426	1367.405648	10.036000	-4.970000
	409.651431	1367.392523	10.012000	-5.210000
	409.799439	1367.374625	10.066000	-5.250000
	409.899445	1367.393718	10.062000	-4.940000
	409.999451	1367.411619	10.016000	-4.950000
	410.099456	1367.411619	10.016000	-4.950000
	410.199462	1367.402073	10.020000	-5.180000
	410.299468	1367.440262	10.040000	-4.810000
	410.399474	1367.440262	10.040000	-4.810000
	410.499479	1367.422364	9.994000	-5.250000
	410.599485	1367.405659	10.048000	-5.240000
	410.699491	1367.422366	10.064000	-4.960000
	410.799496	1367.435493	10.012000	-4.990000
	410.949505	1367.408049	10.030000	-5.330000
	411.050511	1367.404469	10.072000	-5.130000
	411.149517	1367.422370	10.038000	-4.950000
	411.199519	1367.424756	10.022000	-5.080000
	411.349528	1367.399699	10.030000	-5.310000
	411.449533	1367.403279	10.066000	-5.070000
	411.549539	1367.423566	10.028000	-4.930000
	411.649545	1367.415214	10.014000	-5.170000
	411.750551	1367.398508	10.046000	-5.240000
	411.849556	1367.416409	10.066000	-4.950000
	411.949562	1367.416409	10.066000	-4.950000
	411.999565	1367.430729	10.022000	-4.980000
	412.149573	1367.410444	10.004000	-5.270000
	412.249579	1367.394932	10.050000	-5.230000
	412.349585	1367.406866	10.066000	-5.000000
	412.399588	1367.423573	10.018000	-4.960000
	412.549596	1367.408061	10.010000	-5.230000
	412.651602	1367.394935	10.048000	-5.210000
	412.749608	1367.409255	10.058000	-4.980000
	412.849614	1367.421189	10.008000	-5.000000
	412.949619	1367.396132	10.018000	-5.310000
	413.051625	1367.374654	10.050000	-5.280000
	413.149631	1367.394941	10.054000	-4.930000
	413.249637	1367.403294	10.016000	-5.030000
	413.356643	1367.383010	10.022000	-5.270000
	413.449648	1367.396137	10.068000	-4.990000
	413.552654	1367.408070	10.024000	-5.000000
	413.651659	1367.408070	10.030000	-5.100000
	413.752665	1367.398524	10.048000	-5.180000
	413.854671	1367.402104	10.048000	-5.070000
	413.949677	1367.420004	10.028000	-4.950000
	414.102685	1367.399720	10.018000	-5.270000
	414.199691	1367.393753	10.060000	-5.150000
	414.299696	1367.408073	10.060000	-4.980000
	414.399702	1367.434328	9.994000	-4.880000
	414.499708	1367.434328	9.994000	-4.880000
	414.599714	1367.422396	10.010000	-5.200000
	414.699719	1367.412850	10.038000	-5.180000
	414.799725	1367.429557	10.066000	-4.960000
	414.901731	1367.424784	10.020000	-5.140000
	414.999737	1367.405692	10.040000	-5.260000
	415.099742	1367.428367	10.050000	-4.910000
	415.199748	1367.435527	10.016000	-5.040000
	415.299754	1367.414049	10.016000	-5.280000
	415.400760	1367.404503	10.078000	-5.180000
	415.499765	1367.433145	10.038000	-4.860000
	415.599771	1367.417632	10.012000	-5.230000
	415.700777	1367.406893	10.044000	-5.190000
	415.799782	1367.417633	10.072000	-5.010000
	415.899788	1367.414053	10.012000	-5.130000
	415.999794	1367.402121	10.020000	-5.200000
	416.157803	1367.416441	10.060000	-4.980000
	416.249808	1367.430761	10.010000	-4.980000
	416.349814	1367.416442	10.004000	-5.220000
	416.449820	1367.403317	10.044000	-5.210000
	416.549825	1367.422411	10.058000	-4.940000
	416.749837	1367.445085	10.026000	-4.910000
	416.849843	1367.433153	10.040000	-5.200000
	416.949848	1367.408095	10.056000	-5.310000
	417.049854	1367.440318	10.034000	-4.830000
	417.199862	1367.440318	10.030000	-5.100000
	417.299868	1367.420033	10.046000	-5.270000
	417.408875	1367.440321	10.048000	-4.930000
	417.499880	1367.445094	10.006000	-5.060000
	417.603886	1367.418844	10.030000	-5.320000
	417.749894	1367.421230	10.064000	-5.080000
	417.850900	1367.442711	10.034000	-4.920000
	417.949905	1367.434358	10.010000	-5.170000
	418.054911	1367.445099	10.084000	-5.010000
	418.149917	1367.463000	10.006000	-4.950000
	418.299925	1367.447487	10.010000	-5.230000
	418.399931	1367.431975	10.054000	-5.230000
	418.499937	1367.449876	10.056000	-4.950000
	418.613944	1367.453456	9.984000	-5.070000
	418.699948	1367.436750	10.000000	-5.240000
	418.799954	1367.431977	10.048000	-5.140000
	418.949963	1367.451071	10.034000	-4.940000
	419.052969	1367.441525	10.012000	-5.180000
	419.149974	1367.441525	10.012000	-5.180000
	419.251980	1367.421240	10.012000	-5.270000
	419.352985	1367.446302	10.064000	-4.890000
	419.449991	1367.428403	10.010000	-5.250000
	419.549997	1367.418857	10.058000	-5.180000
	419.651003	1367.446306	10.056000	-4.870000
	419.750009	1367.443919	10.000000	-5.120000
	419.858015	1367.431986	10.032000	-5.200000
	419.957020	1367.461822	10.052000	-4.850000
	420.051025	1367.468983	9.998000	-5.040000
	420.150031	1367.449890	10.000000	-5.260000
	420.250037	1367.455857	10.048000	-5.050000
	420.350043	1367.478532	10.032000	-4.910000
	420.450048	1367.478532	10.032000	-4.910000
	420.550054	1367.468986	9.998000	-5.180000
	420.650060	1367.451087	10.042000	-5.250000
	420.750065	1367.464214	10.060000	-4.990000
	420.850071	1367.484503	10.036000	-4.930000
	420.950077	1367.478536	10.010000	-5.150000
	421.050083	1367.467796	10.006000	-5.190000
	421.150088	1367.471376	10.052000	-5.070000
	421.250094	1367.502407	10.038000	-4.840000
	421.352100	1367.495247	10.002000	-5.160000
	421.450106	1367.485700	10.024000	-5.180000
	421.550111	1367.477347	10.068000	-5.170000
	421.650117	1367.504797	10.030000	-4.870000
	421.750123	1367.497637	9.986000	-5.160000
	421.850129	1367.468999	10.044000	-5.340000
	421.950134	1367.477353	10.052000	-5.030000
	422.100143	1367.488093	10.022000	-5.010000
	422.200149	1367.478547	10.010000	-5.180000
	422.300154	1367.470193	10.058000	-5.170000
	422.400160	1367.488095	10.024000	-4.950000
	422.500165	1367.500029	9.982000	-5.000000
	422.600172	1367.465425	10.006000	-5.390000
	422.700177	1367.458265	10.068000	-5.160000
	422.851186	1367.482134	10.032000	-4.900000
	422.950191	1367.494068	10.010000	-5.000000
	423.051197	1367.477362	10.012000	-5.240000
	423.150203	1367.466622	10.062000	-5.190000
	423.250208	1367.466622	10.062000	-5.190000
	423.352214	1367.479750	10.054000	-4.990000
	423.450220	1367.484523	10.030000	-5.060000
	423.550226	1367.471397	10.006000	-5.210000
	423.650231	1367.467817	10.052000	-5.130000
	423.750237	1367.485718	10.042000	-4.950000
	423.850243	1367.501233	10.016000	-4.970000
	423.950249	1367.490493	9.998000	-5.190000
	424.050254	1367.479753	10.042000	-5.190000
	424.150260	1367.498848	10.036000	-4.940000
	424.250266	1367.491688	9.988000	-5.160000
	424.354272	1367.466630	10.018000	-5.310000
	424.450277	1367.471403	10.066000	-5.060000
	424.550283	1367.489305	10.002000	-4.950000
	424.651289	1367.473792	9.994000	-5.230000
	424.750294	1367.460666	10.044000	-5.210000
	424.850300	1367.483341	10.042000	-4.910000
	424.950306	1367.483341	10.042000	-4.910000
	425.050312	1367.498855	10.016000	-4.970000
	425.150317	1367.478570	9.998000	-5.270000
	425.250323	1367.463057	10.038000	-5.230000
	425.350328	1367.477378	10.038000	-4.980000
	425.450335	1367.485731	10.012000	-5.030000
	425.550340	1367.483345	9.996000	-5.120000
	425.650346	1367.461866	10.040000	-5.280000
	425.750351	1367.477380	10.052000	-4.970000
	425.850357	1367.490508	10.004000	-4.990000
	425.952363	1367.491701	10.008000	-5.090000
	426.050369	1367.469029	10.050000	-5.290000
	426.150374	1367.488124	10.038000	-4.940000
	426.250380	1367.508412	10.000000	-4.930000
	426.350386	1367.489320	10.030000	-5.260000
	426.450392	1367.483353	10.066000	-5.150000
	426.550397	1367.507222	10.042000	-4.900000
	426.650403	1367.495289	10.004000	-5.200000
	426.800412	1367.495289	10.004000	-5.200000
	426.900417	1367.482163	10.050000	-5.210000
	426.999423	1367.512000	10.034000	-4.850000
	427.100429	1367.501260	9.990000	-5.190000
	427.199434	1367.490520	10.020000	-5.190000
	427.299440	1367.494100	10.038000	-5.070000
	427.399446	1367.520357	10.018000	-4.880000
	427.499452	1367.501264	10.002000	-5.260000
	427.599457	1367.492911	10.050000	-5.170000
	427.699463	1367.510812	10.058000	-4.950000
	427.799469	1367.538263	9.996000	-4.870000
	427.899475	1367.529909	10.002000	-5.170000
	428.007481	1367.539457	10.066000	-5.020000
	428.052483	1367.543037	9.992000	-5.070000
	428.199492	1367.512012	10.014000	-5.360000
	428.299497	1367.523946	10.060000	-5.000000
	428.399503	1367.537074	9.994000	-4.990000
	428.552512	1367.528720	10.032000	-5.170000
	428.651517	1367.543042	10.044000	-4.980000
	428.749523	1367.541849	10.008000	-5.110000
	428.849529	1367.520369	10.040000	-5.280000
	428.949534	1367.546626	10.040000	-4.880000
	429.099543	1367.532306	10.000000	-5.220000
	429.199549	1367.534693	10.054000	-5.080000
	429.299554	1367.549014	10.020000	-4.980000
	429.453563	1367.522762	9.992000	-5.320000
	429.558569	1367.514408	10.058000	-5.170000
	429.652575	1367.527536	10.040000	-4.990000
	429.749580	1367.512023	10.010000	-5.230000
	429.849586	1367.507249	10.050000	-5.140000
	430.002595	1367.533506	10.006000	-4.880000
	430.099600	1367.527539	10.000000	-5.150000
	430.205606	1367.512026	10.024000	-5.230000
	430.299612	1367.522767	10.036000	-5.010000
	430.399618	1367.531121	10.006000	-5.030000
	430.549626	1367.520381	10.038000	-5.190000
	430.649632	1367.538283	10.014000	-4.950000
	430.749638	1367.504871	10.002000	-5.380000
	430.849643	1367.509645	10.038000	-5.060000
	430.999652	1367.522773	9.998000	-4.990000
	431.099658	1367.507259	10.010000	-5.230000
	431.199663	1367.507259	10.010000	-5.230000
	431.349672	1367.522774	10.020000	-4.970000
	431.399675	1367.508454	10.010000	-5.220000
	431.549683	1367.514421	10.042000	-5.050000
	431.651689	1367.531130	10.004000	-4.960000
	431.749695	1367.522776	10.010000	-5.170000
	431.853701	1367.527550	10.056000	-5.060000
	431.949706	1367.531130	10.000000	-5.070000
	432.049712	1367.514424	10.032000	-5.240000
	432.149717	1367.527551	10.038000	-4.990000
	432.250723	1367.545453	10.018000	-4.950000
	432.349729	1367.534713	10.008000	-5.190000
	432.454735	1367.544261	10.038000	-5.020000
	432.549740	1367.555002	10.008000	-5.010000
	432.649746	1367.545455	10.002000	-5.180000
	432.749752	1367.526362	10.060000	-5.260000
	432.849758	1367.535909	10.030000	-5.020000
	432.949763	1367.525169	10.008000	-5.190000
	433.049769	1367.510849	10.034000	-5.220000
	433.149775	1367.528751	10.028000	-4.950000
	433.299783	1367.528751	10.028000	-4.950000
	433.399789	1367.526364	10.026000	-5.120000
	433.499795	1367.508464	10.028000	-5.250000
	433.599801	1367.510851	10.068000	-5.080000
	433.699806	1367.532334	10.012000	-4.920000
	433.799812	1367.519207	10.002000	-5.210000
	433.899817	1367.522787	10.034000	-5.070000
	433.999824	1367.534721	10.036000	-5.000000
	434.099829	1367.523981	10.012000	-5.190000
	434.199835	1367.513241	10.036000	-5.190000
	434.299840	1367.531143	10.038000	-4.950000
	434.399846	1367.539497	10.006000	-5.030000
	434.499852	1367.527564	10.014000	-5.200000
	434.599858	1367.544272	10.046000	-4.960000
	434.699863	1367.571723	10.002000	-4.870000
	434.800869	1367.547857	9.982000	-5.300000
	434.899875	1367.555017	10.050000	-5.040000
	434.999881	1367.592019	10.034000	-4.790000
	435.099886	1367.592019	10.034000	-4.790000
	435.199892	1367.582471	9.990000	-5.180000
	435.299898	1367.560991	10.032000	-5.280000
	435.399903	1367.572926	10.046000	-5.000000
	435.499909	1367.569346	9.992000	-5.130000
	435.599915	1367.527581	10.032000	-5.450000
	435.699921	1367.538322	10.048000	-5.010000
	435.799926	1367.549064	10.024000	-5.010000
	435.899932	1367.545483	9.998000	-5.130000
	435.999938	1367.529970	10.034000	-5.230000
	436.099944	1367.535937	10.038000	-5.050000
	436.199949	1367.546678	9.998000	-5.010000
	436.299955	1367.537131	10.018000	-5.180000
	436.399961	1367.529971	10.056000	-5.160000
	436.501966	1367.549067	10.054000	-4.940000
	436.599972	1367.553840	10.008000	-5.060000
	436.699978	1367.520428	10.018000	-5.380000
	436.799984	1367.525202	10.054000	-5.060000
	436.899989	1367.549072	10.010000	-4.900000
	437.002995	1367.555039	10.016000	-5.050000
	437.100001	1367.532366	10.054000	-5.290000
	437.200006	1367.557430	10.038000	-4.890000
	437.350015	1367.565784	10.008000	-5.030000
	437.450021	1367.539531	10.016000	-5.320000
	437.550026	1367.538338	10.048000	-5.110000
	437.650032	1367.562208	10.032000	-4.900000
	437.750038	1367.566982	9.986000	-5.060000
	437.850044	1367.545502	10.004000	-5.280000
	437.950049	1367.551469	10.052000	-5.050000
	438.050055	1367.563403	10.036000	-5.000000
	438.200064	1367.563403	10.036000	-5.000000
	438.300069	1367.561017	9.992000	-5.120000
	438.350072	1367.534764	10.038000	-5.320000
	438.500081	1367.553860	10.052000	-4.940000
	438.600087	1367.580117	10.014000	-4.880000
	438.700092	1367.574150	10.002000	-5.150000
	438.800098	1367.564603	10.030000	-5.180000
	438.900104	1367.575344	10.026000	-5.010000
	439.000109	1367.582505	10.010000	-5.040000
	439.100115	1367.559832	10.010000	-5.290000
