LabVIEW Measurement	
Writer_Version	2
Reader_Version	2
Separator	Tab
Decimal_Separator	.
Multi_Headings	No
X_Columns	No
Time_Pref	Relative
Operator	Herve
Date	2023/06/20
Time	17:15:01.9447865486145019532
***End_of_Header***	
	
Channels	4				
Samples	3616	3616	3616	3616	
Date	1904/01/01	1904/01/01	1904/01/01	1904/01/01	
Time	09:00:00	09:00:00	09:00:00	09:00:00	
Y_Unit_Label	s	Hz	mV	°	
X_Dimension	Time	Time	Time	Time	
X0	0.0000000000000000E+0	0.0000000000000000E+0	0.0000000000000000E+0	0.0000000000000000E+0	
Delta_X	1.000000	1.000000	1.000000	1.000000	
***End_of_Header***					
X_Value	Time	Res.Frequency	Amplitude	Phase	Comment
	0.050003	1448.192999	27.234000	-5.840000
	0.150008	1448.189208	27.206000	-5.930000
	0.250014	1448.189208	27.206000	-5.930000
	0.350020	1448.184153	27.244000	-5.940000
	0.450026	1448.191736	27.246000	-5.840000
	0.550031	1448.191736	27.206000	-5.900000
	0.650037	1448.186681	27.226000	-5.940000
	0.750043	1448.186681	27.234000	-5.900000
	0.850049	1448.193000	27.254000	-5.850000
	0.950054	1448.187945	27.206000	-5.940000
	1.050060	1448.184153	27.252000	-5.930000
	1.150065	1448.190472	27.250000	-5.850000
	1.250072	1448.200583	27.224000	-5.820000
	1.350077	1448.190473	27.214000	-5.980000
	1.450083	1448.190473	27.254000	-5.900000
	1.550088	1448.195528	27.242000	-5.860000
	1.650094	1448.196792	27.230000	-5.890000
	1.750100	1448.196792	27.222000	-5.900000
	1.850106	1448.196792	27.222000	-5.900000
	1.950111	1448.193001	27.242000	-5.930000
	2.050117	1448.195528	27.242000	-5.880000
	2.150123	1448.199320	27.212000	-5.870000
	2.250129	1448.191737	27.212000	-5.960000
	2.350134	1448.193001	27.248000	-5.890000
	2.450140	1448.191737	27.232000	-5.910000
	2.550146	1448.182891	27.218000	-5.970000
	2.650151	1448.175308	27.232000	-5.960000
	2.750157	1448.181627	27.256000	-5.850000
	2.850163	1448.185419	27.228000	-5.870000
	2.950169	1448.189210	27.228000	-5.870000
	3.050174	1448.189210	27.254000	-5.900000
	3.150180	1448.200585	27.228000	-5.810000
	3.250186	1448.200585	27.202000	-5.900000
	3.350192	1448.191738	27.228000	-5.970000
	3.450197	1448.191738	27.228000	-5.970000
	3.550203	1448.191738	27.242000	-5.900000
	3.650208	1448.198058	27.220000	-5.850000
	3.750215	1448.194266	27.210000	-5.930000
	3.850220	1448.187947	27.236000	-5.950000
	3.950226	1448.184156	27.242000	-5.930000
	4.050231	1448.190475	27.226000	-5.850000
	4.150237	1448.190475	27.204000	-5.900000
	4.252243	1448.184156	27.250000	-5.950000
	4.350249	1448.184156	27.234000	-5.900000
	4.450254	1448.193003	27.222000	-5.830000
	4.550260	1448.189212	27.190000	-5.930000
	4.650266	1448.187948	27.250000	-5.910000
	4.750272	1448.194267	27.260000	-5.850000
	4.850277	1448.195531	27.220000	-5.890000
	4.950283	1448.195531	27.220000	-5.890000
	5.050289	1448.189212	27.206000	-5.950000
	5.150294	1448.186684	27.240000	-5.920000
	5.250300	1448.194267	27.238000	-5.840000
	5.352306	1448.196795	27.228000	-5.880000
	5.449312	1448.193004	27.218000	-5.930000
	5.549317	1448.189212	27.248000	-5.930000
	5.649323	1448.193004	27.242000	-5.870000
	5.749329	1448.196795	27.196000	-5.870000
	5.849334	1448.186685	27.224000	-5.980000
	5.949340	1448.186685	27.264000	-5.900000
	6.049346	1448.194268	27.240000	-5.840000
	6.149352	1448.190477	27.208000	-5.930000
	6.249357	1448.181631	27.258000	-5.970000
	6.349363	1448.180367	27.248000	-5.910000
	6.449368	1448.180367	27.248000	-5.910000
	6.549375	1448.187950	27.228000	-5.840000
	6.649380	1448.187950	27.216000	-5.900000
	6.749386	1448.185422	27.236000	-5.920000
	6.849391	1448.196797	27.256000	-5.810000
	6.949397	1448.204379	27.212000	-5.840000
	7.049403	1448.199324	27.206000	-5.940000
	7.149409	1448.191742	27.246000	-5.960000
	7.252415	1448.198061	27.240000	-5.850000
	7.349420	1448.200588	27.212000	-5.880000
	7.449426	1448.191742	27.236000	-5.970000
	7.549432	1448.186687	27.262000	-5.940000
	7.649437	1448.186687	27.234000	-5.900000
	7.749443	1448.186687	27.208000	-5.900000
	7.849449	1448.175314	27.212000	-5.990000
	7.949454	1448.175314	27.232000	-5.900000
	8.049460	1448.175314	27.232000	-5.900000
	8.149466	1448.180369	27.232000	-5.860000
	8.249472	1448.176577	27.216000	-5.930000
	8.349477	1448.171522	27.252000	-5.940000
	8.449483	1448.174050	27.258000	-5.880000
	8.549489	1448.184161	27.222000	-5.820000
	8.649495	1448.186688	27.210000	-5.880000
	8.749500	1448.180369	27.244000	-5.950000
	8.849506	1448.186688	27.242000	-5.850000
	8.949512	1448.189216	27.212000	-5.880000
	9.049518	1448.185425	27.216000	-5.930000
	9.151523	1448.174051	27.252000	-5.990000
	9.249529	1448.174051	27.236000	-5.900000
	9.349535	1448.184162	27.236000	-5.820000
	9.449540	1448.182898	27.196000	-5.910000
	9.549546	1448.175315	27.236000	-5.960000
	9.649552	1448.181634	27.234000	-5.850000
	9.749557	1448.181634	27.234000	-5.850000
	9.849563	1448.189217	27.226000	-5.840000
	9.949569	1448.186690	27.206000	-5.920000
	10.049575	1448.186690	27.238000	-5.900000
	10.149580	1448.187953	27.236000	-5.890000
	10.249586	1448.191745	27.234000	-5.870000
	10.349592	1448.189217	27.214000	-5.920000
	10.449597	1448.185426	27.238000	-5.930000
	10.549603	1448.185426	27.252000	-5.900000
	10.649609	1448.191745	27.230000	-5.850000
	10.749615	1448.191745	27.232000	-5.900000
	10.849620	1448.184162	27.214000	-5.960000
	10.949626	1448.181635	27.258000	-5.920000
	11.050632	1448.189218	27.258000	-5.840000
	11.149638	1448.194273	27.216000	-5.860000
	11.249643	1448.185427	27.230000	-5.970000
	11.349649	1448.185427	27.230000	-5.970000
	11.449655	1448.181635	27.264000	-5.930000
	11.549661	1448.190482	27.248000	-5.830000
	11.649666	1448.193010	27.226000	-5.880000
	11.749672	1448.190482	27.214000	-5.920000
	11.849678	1448.185427	27.248000	-5.940000
	11.949683	1448.180372	27.240000	-5.940000
	12.049689	1448.189219	27.254000	-5.830000
	12.149695	1448.195538	27.216000	-5.850000
	12.249701	1448.193010	27.230000	-5.920000
	12.349706	1448.191747	27.238000	-5.910000
	12.449712	1448.199330	27.248000	-5.840000
	12.549718	1448.206912	27.218000	-5.840000
	12.649724	1448.196802	27.210000	-5.980000
	12.749729	1448.186692	27.246000	-5.980000
	12.849735	1448.186692	27.246000	-5.980000
	12.949740	1448.185429	27.244000	-5.910000
	13.049747	1448.190484	27.232000	-5.860000
	13.149752	1448.191748	27.218000	-5.890000
	13.249758	1448.185429	27.232000	-5.950000
	13.349763	1448.190484	27.266000	-5.860000
	13.449769	1448.196803	27.236000	-5.850000
	13.549775	1448.199331	27.226000	-5.880000
	13.649781	1448.193012	27.240000	-5.950000
	13.749786	1448.190484	27.250000	-5.920000
	13.849792	1448.195540	27.250000	-5.860000
	13.949798	1448.200595	27.206000	-5.860000
	14.049804	1448.201859	27.214000	-5.890000
	14.149809	1448.191749	27.208000	-5.980000
	14.249815	1448.191749	27.208000	-5.980000
	14.349821	1448.186694	27.240000	-5.940000
	14.449826	1448.193013	27.244000	-5.850000
	14.549832	1448.195540	27.206000	-5.880000
	14.649838	1448.190485	27.200000	-5.940000
	14.749844	1448.179112	27.246000	-5.990000
	14.849849	1448.182903	27.272000	-5.870000
	14.949855	1448.193013	27.240000	-5.820000
	15.049860	1448.194277	27.214000	-5.890000
	15.149867	1448.182904	27.236000	-5.990000
	15.249872	1448.180376	27.258000	-5.920000
	15.349878	1448.184167	27.240000	-5.870000
	15.449883	1448.196806	27.238000	-5.800000
	15.549889	1448.191751	27.230000	-5.940000
	15.649895	1448.186696	27.244000	-5.940000
	15.749901	1448.191751	27.258000	-5.860000
	15.849906	1448.194279	27.226000	-5.880000
	15.949912	1448.195542	27.198000	-5.890000
	16.049918	1448.195542	27.198000	-5.890000
	16.149924	1448.189223	27.220000	-5.950000
	16.249929	1448.184168	27.244000	-5.940000
	16.349935	1448.187960	27.246000	-5.870000
	16.449941	1448.190487	27.218000	-5.880000
	16.549946	1448.195543	27.218000	-5.860000
	16.649952	1448.194279	27.222000	-5.910000
	16.749958	1448.190488	27.232000	-5.930000
	16.849964	1448.193015	27.258000	-5.880000
	16.949969	1448.199334	27.208000	-5.850000
	17.049975	1448.196807	27.202000	-5.920000
	17.149981	1448.189224	27.230000	-5.960000
	17.249987	1448.187960	27.260000	-5.910000
	17.349992	1448.187960	27.244000	-5.900000
	17.449998	1448.187960	27.244000	-5.900000
	17.550004	1448.194279	27.222000	-5.850000
	17.650010	1448.189224	27.200000	-5.940000
	17.750015	1448.186697	27.240000	-5.920000
	17.850021	1448.185433	27.266000	-5.910000
	17.950027	1448.194280	27.230000	-5.830000
	18.050032	1448.198071	27.202000	-5.870000
	18.150038	1448.189225	27.206000	-5.970000
	18.250044	1448.185434	27.270000	-5.930000
	18.350049	1448.190489	27.242000	-5.860000
	18.450055	1448.193016	27.222000	-5.880000
	18.550061	1448.193016	27.208000	-5.900000
	18.650066	1448.189225	27.246000	-5.930000
	18.750072	1448.191753	27.246000	-5.880000
	18.850078	1448.196808	27.234000	-5.860000
	18.950084	1448.200599	27.224000	-5.870000
	19.050089	1448.200599	27.224000	-5.870000
	19.150095	1448.195544	27.198000	-5.940000
	19.250101	1448.193017	27.206000	-5.920000
	19.350107	1448.191753	27.256000	-5.910000
	19.450112	1448.200600	27.222000	-5.830000
	19.550118	1448.203127	27.210000	-5.880000
	19.650124	1448.203127	27.222000	-5.900000
	19.750130	1448.217030	27.442000	-5.790000
	19.850135	1448.217030	27.294000	-5.900000
	19.950141	1448.218294	27.252000	-5.890000
	20.050147	1448.219557	27.212000	-5.890000
	20.150152	1448.210711	27.222000	-5.970000
	20.250158	1448.204392	27.228000	-5.950000
	20.350164	1448.200601	27.240000	-5.930000
	20.450170	1448.201864	27.252000	-5.890000
	20.550175	1448.205656	27.216000	-5.870000
	20.650181	1448.205656	27.216000	-5.870000
	20.750187	1448.208184	27.228000	-5.880000
	20.850193	1448.195546	27.226000	-6.000000
	20.950198	1448.194282	27.244000	-5.910000
	21.050204	1448.196810	27.250000	-5.880000
	21.150209	1448.204393	27.212000	-5.840000
	21.250216	1448.198074	27.206000	-5.950000
	21.350221	1448.190491	27.214000	-5.960000
	21.450227	1448.186700	27.244000	-5.930000
	21.550232	1448.187964	27.248000	-5.890000
	21.650238	1448.194283	27.240000	-5.850000
	21.750244	1448.193019	27.206000	-5.910000
	21.850250	1448.203130	27.180000	-5.820000
	21.950255	1448.201866	27.224000	-5.910000
	22.050261	1448.196811	27.276000	-5.940000
	22.150267	1448.199339	27.238000	-5.880000
	22.250272	1448.199339	27.238000	-5.880000
	22.350278	1448.205658	27.222000	-5.850000
	22.450284	1448.196811	27.216000	-5.970000
	22.550290	1448.194284	27.240000	-5.920000
	22.650295	1448.191756	27.234000	-5.920000
	22.750301	1448.193020	27.252000	-5.890000
	22.849307	1448.193020	27.236000	-5.900000
	22.949313	1448.190492	27.216000	-5.920000
	23.049318	1448.196812	27.230000	-5.850000
	23.149324	1448.186702	27.246000	-5.980000
	23.249330	1448.185438	27.262000	-5.910000
	23.349335	1448.190493	27.226000	-5.860000
	23.451341	1448.194284	27.228000	-5.870000
	23.549347	1448.196812	27.212000	-5.880000
	23.649353	1448.189229	27.230000	-5.960000
	23.749358	1448.189229	27.230000	-5.960000
	23.849364	1448.184174	27.256000	-5.940000
	23.949370	1448.182911	27.264000	-5.910000
	24.049376	1448.187966	27.228000	-5.860000
	24.149381	1448.193021	27.206000	-5.860000
	24.249387	1448.190494	27.212000	-5.920000
	24.349392	1448.182911	27.242000	-5.960000
	24.449399	1448.180383	27.256000	-5.920000
	24.549404	1448.185439	27.262000	-5.860000
	24.649410	1448.194285	27.230000	-5.830000
	24.749415	1448.198077	27.210000	-5.870000
	24.849421	1448.191758	27.218000	-5.950000
	24.949427	1448.180384	27.256000	-5.990000
	25.049433	1448.184176	27.278000	-5.870000
	25.149438	1448.195550	27.240000	-5.810000
	25.249444	1448.195550	27.208000	-5.900000
	25.351450	1448.195550	27.208000	-5.900000
	25.449456	1448.191759	27.220000	-5.930000
	25.549461	1448.182913	27.242000	-5.970000
	25.649467	1448.177858	27.242000	-5.940000
	25.749473	1448.177858	27.244000	-5.900000
	25.849478	1448.181649	27.222000	-5.870000
	25.949484	1448.181649	27.224000	-5.900000
	26.049490	1448.176594	27.194000	-5.940000
	26.149496	1448.174066	27.246000	-5.920000
	26.249501	1448.177858	27.262000	-5.870000
	26.349507	1448.190496	27.252000	-5.800000
	26.449512	1448.199343	27.228000	-5.830000
	26.549519	1448.194288	27.236000	-5.940000
	26.649524	1448.187969	27.232000	-5.950000
	26.749530	1448.186705	27.264000	-5.910000
	26.849535	1448.186705	27.264000	-5.910000
	26.949541	1448.189233	27.230000	-5.880000
	27.049547	1448.189233	27.216000	-5.900000
	27.149553	1448.193024	27.218000	-5.870000
	27.250558	1448.187969	27.208000	-5.940000
	27.349564	1448.182914	27.258000	-5.940000
	27.449570	1448.184178	27.256000	-5.890000
	27.549576	1448.193025	27.240000	-5.830000
	27.649581	1448.194288	27.222000	-5.890000
	27.749587	1448.193025	27.214000	-5.910000
	27.849593	1448.187970	27.224000	-5.940000
	27.949598	1448.186706	27.240000	-5.910000
	28.049604	1448.189233	27.240000	-5.880000
	28.149610	1448.193025	27.216000	-5.870000
	28.249616	1448.190497	27.228000	-5.920000
	28.349621	1448.180387	27.236000	-5.980000
	28.449627	1448.177860	27.254000	-5.920000
	28.549633	1448.177860	27.254000	-5.920000
	28.649639	1448.185443	27.358000	-5.840000
	28.749644	1448.194289	27.242000	-5.830000
	28.849650	1448.195553	27.232000	-5.890000
	28.949656	1448.186707	27.238000	-5.970000
	29.049662	1448.182916	27.224000	-5.930000
	29.149667	1448.187971	27.242000	-5.860000
	29.249673	1448.196818	27.250000	-5.830000
	29.349679	1448.200609	27.224000	-5.870000
	29.449684	1448.200609	27.218000	-5.900000
	29.549690	1448.194290	27.234000	-5.950000
	29.649696	1448.193026	27.248000	-5.910000
	29.749701	1448.191763	27.248000	-5.910000
	29.849707	1448.200609	27.240000	-5.830000
	29.949713	1448.200609	27.240000	-5.830000
	30.049718	1448.201873	27.200000	-5.890000
	30.149724	1448.196818	27.222000	-5.940000
	30.249730	1448.193027	27.244000	-5.930000
	30.349736	1448.193027	27.270000	-5.900000
	30.449741	1448.204401	27.224000	-5.810000
	30.549747	1448.204401	27.220000	-5.900000
	30.649753	1448.191764	27.218000	-6.000000
	30.749759	1448.186709	27.252000	-5.940000
	30.849764	1448.186709	27.264000	-5.900000
	30.949770	1448.195556	27.244000	-5.830000
	31.049776	1448.200611	27.230000	-5.860000
	31.149782	1448.199347	27.220000	-5.910000
	31.249787	1448.194292	27.240000	-5.940000
	31.349793	1448.190501	27.230000	-5.930000
	31.449799	1448.194292	27.244000	-5.870000
	31.549804	1448.198083	27.242000	-5.870000
	31.649810	1448.198083	27.242000	-5.870000
	31.749816	1448.198083	27.224000	-5.900000
	31.849822	1448.189237	27.228000	-5.970000
	31.949827	1448.182918	27.254000	-5.950000
	32.049833	1448.190501	27.244000	-5.840000
	32.149839	1448.196820	27.228000	-5.850000
	32.249845	1448.199348	27.200000	-5.880000
	32.349850	1448.193029	27.222000	-5.950000
	32.449856	1448.189238	27.238000	-5.930000
	32.549861	1448.189238	27.248000	-5.900000
	32.649868	1448.193029	27.248000	-5.870000
	32.749873	1448.201876	27.218000	-5.830000
	32.849879	1448.198085	27.224000	-5.930000
	32.949884	1448.187975	27.232000	-5.980000
	33.049890	1448.180392	27.254000	-5.960000
	33.149896	1448.186711	27.218000	-5.850000
	33.249902	1448.186711	27.218000	-5.850000
	33.349907	1448.195558	27.230000	-5.830000
	33.449913	1448.191767	27.214000	-5.930000
	33.549919	1448.189239	27.222000	-5.920000
	33.649924	1448.184184	27.242000	-5.940000
	33.749930	1448.189239	27.258000	-5.860000
	33.849936	1448.189239	27.252000	-5.900000
	33.949942	1448.195558	27.222000	-5.850000
	34.049947	1448.187976	27.220000	-5.960000
	34.149953	1448.187976	27.214000	-5.900000
	34.249959	1448.187976	27.244000	-5.900000
	34.349965	1448.187976	27.254000	-5.900000
	34.449970	1448.196822	27.244000	-5.830000
	34.549976	1448.205669	27.240000	-5.830000
	34.649981	1448.199350	27.206000	-5.950000
	34.749988	1448.199350	27.206000	-5.950000
	34.849993	1448.194295	27.216000	-5.940000
	34.949999	1448.194295	27.232000	-5.900000
	35.050004	1448.190504	27.262000	-5.930000
	35.150010	1448.191768	27.212000	-5.890000
	35.250016	1448.198087	27.226000	-5.850000
	35.350022	1448.193032	27.218000	-5.940000
	35.450027	1448.191768	27.238000	-5.910000
	35.550033	1448.184185	27.248000	-5.960000
	35.650039	1448.189241	27.264000	-5.860000
	35.750045	1448.200615	27.244000	-5.810000
	35.850050	1448.199351	27.230000	-5.910000
	35.950056	1448.199351	27.220000	-5.900000
	36.050062	1448.190505	27.236000	-5.970000
	36.150067	1448.182923	27.250000	-5.960000
	36.250073	1448.182923	27.272000	-5.900000
	36.350079	1448.182923	27.272000	-5.900000
	36.450085	1448.193033	27.234000	-5.820000
	36.550090	1448.199352	27.222000	-5.850000
	36.650096	1448.194297	27.210000	-5.940000
	36.750102	1448.193033	27.218000	-5.910000
	36.850108	1448.186715	27.240000	-5.950000
	36.950113	1448.187978	27.246000	-5.890000
	37.050119	1448.191770	27.230000	-5.870000
	37.150125	1448.203144	27.220000	-5.810000
	37.250130	1447.968186	27.234000	-7.760000
	37.350136	1448.094613	27.546000	-4.900000
	37.450142	1448.198281	26.994000	-5.080000
	37.550148	1448.170480	27.396000	-6.120000
	37.650153	1448.179327	27.200000	-5.830000
	37.752159	1448.178063	27.220000	-5.910000
	37.850165	1448.179327	27.216000	-5.890000
	37.950171	1448.176799	27.248000	-5.920000
	38.050176	1448.184382	27.344000	-5.840000
	38.150182	1448.184382	27.344000	-5.840000
	38.250187	1448.179327	27.230000	-5.940000
	38.350194	1448.184382	27.266000	-5.860000
	38.450199	1448.044153	26.914000	-7.010000
	38.550205	1448.077012	27.728000	-5.640000
	38.650210	1448.059322	26.978000	-6.040000
	38.750216	1448.070695	27.296000	-5.810000
	38.850222	1448.117460	27.242000	-5.530000
	38.950228	1448.154112	27.304000	-5.610000
	39.050233	1448.165487	27.240000	-5.810000
	39.150239	1448.160432	27.312000	-5.940000
	39.250245	1448.151586	27.076000	-5.970000
	39.350251	1448.069462	27.546000	-6.550000
	39.450256	1448.444328	27.768000	-2.940000
	39.550262	1448.444328	27.768000	-2.940000
	39.651268	1448.392513	27.276000	-6.310000
	39.750273	1448.362180	27.252000	-6.140000
	39.850279	1448.292679	27.338000	-6.450000
	39.950285	1448.338186	27.284000	-5.540000
	40.050291	1448.324283	27.236000	-6.010000
	40.150296	1448.302799	27.240000	-6.070000
	40.250302	1448.304063	27.312000	-5.890000
	40.349308	1448.085509	26.708000	-7.630000
	40.449313	1447.946553	26.804000	-7.000000
	40.549319	1448.004690	27.300000	-5.440000
	40.649325	1448.053980	27.278000	-5.510000
	40.749331	1448.081784	27.198000	-5.680000
	40.849336	1449.822441	23.374000	7.540000
	40.949342	1450.838335	24.724000	2.050000
	41.049348	1450.838335	24.724000	2.050000
	41.149354	1451.680110	24.680000	0.700000
	41.249359	1452.301148	24.624000	-1.020000
	41.349365	1452.826429	24.984000	-1.770000
	41.449370	1453.355738	25.604000	-1.740000
	41.551376	1453.627533	24.776000	-3.760000
	41.649382	1454.007664	24.670000	-2.910000
	41.749388	1454.259216	24.616000	-3.920000
	41.849393	1454.467551	24.564000	-4.260000
	41.949399	1454.576757	24.046000	-5.040000
	42.049405	1454.749525	23.514000	-4.540000
	42.149411	1454.790155	24.492000	-5.580000
	42.249416	1454.804121	23.444000	-5.790000
	42.349422	1454.345926	22.886000	-9.510000
	42.449428	1454.464016	23.566000	-4.970000
	42.549434	1454.489403	23.528000	-5.700000
	42.649439	1454.550343	23.268000	-5.420000
	42.749445	1454.550343	23.268000	-5.420000
	42.849451	1454.560498	23.100000	-5.820000
	42.949456	1454.502119	23.136000	-6.360000
	43.049462	1454.431053	23.212000	-6.460000
	43.149468	1454.540256	23.448000	-5.040000
	43.249474	1454.412098	23.174000	-6.910000
	43.349479	1454.220528	23.326000	-7.410000
	43.450485	1454.072105	23.376000	-7.070000
	43.549491	1453.846340	23.332000	-7.680000
	43.649497	1453.567353	23.352000	-8.100000
	43.749502	1453.209793	23.252000	-8.720000
	43.849508	1453.209793	23.252000	-8.720000
	43.949513	1452.943603	23.172000	-8.000000
	44.049519	1452.679997	23.144000	-7.980000
	44.149525	1452.410103	23.228000	-8.030000
	44.249531	1452.152927	23.282000	-7.930000
	44.349536	1451.923661	23.318000	-7.710000
	44.449542	1451.734952	23.358000	-7.390000
	44.549548	1451.585516	23.426000	-7.080000
	44.656554	1451.457618	23.416000	-6.910000
	44.749559	1451.457618	23.416000	-6.910000
	44.849565	1451.360113	23.440000	-6.670000
	44.949571	1451.280339	23.466000	-6.530000
	45.049576	1451.234753	23.384000	-6.260000
	45.149582	1451.172709	23.478000	-6.390000
	45.249588	1451.123327	23.486000	-6.290000
	45.349594	1451.082810	23.470000	-6.220000
	45.449599	1451.058752	23.450000	-6.090000
	45.549605	1451.762896	22.240000	-0.370000
	45.649611	1451.757829	23.798000	-5.940000
	45.749617	1451.660304	23.400000	-6.670000
	45.849622	1451.593177	23.106000	-6.430000
	45.949628	1451.484269	23.294000	-6.760000
	46.049634	1451.390561	23.448000	-6.640000
	46.149640	1451.323446	23.484000	-6.430000
	46.249645	1451.239876	23.622000	-6.560000
	46.349651	1451.239876	23.622000	-6.560000
	46.449656	1451.128463	23.692000	-6.780000
	46.549662	1451.047436	23.698000	-6.540000
	46.649668	1450.970211	23.700000	-6.510000
	46.749674	1450.911975	23.696000	-6.360000
	46.849679	1450.866400	23.762000	-6.260000
	46.949685	1450.823358	23.832000	-6.240000
	47.049691	1450.784114	23.784000	-6.210000
	47.149697	1450.751201	23.770000	-6.160000
	47.249702	1450.724617	23.872000	-6.110000
	47.349708	1450.709425	23.778000	-6.020000
	47.449714	1450.704361	23.754000	-5.940000
	47.549719	1450.694234	23.794000	-5.980000
	47.649725	1450.684107	23.782000	-5.980000
	47.749731	1450.671448	23.752000	-6.000000
	47.849737	1450.671448	23.752000	-6.000000
	47.949742	1450.667650	23.782000	-5.930000
	48.049748	1450.670182	23.780000	-5.880000
	48.149754	1450.666384	23.734000	-5.930000
	48.249760	1450.668916	23.764000	-5.880000
	48.349765	1450.677778	23.770000	-5.830000
	48.449771	1450.673980	23.780000	-5.930000
	48.549777	1450.679044	23.774000	-5.860000
	48.649783	1450.682842	23.758000	-5.870000
	48.749788	1450.681576	23.752000	-5.910000
	48.850794	1450.687906	23.740000	-5.850000
	48.949800	1450.690438	23.720000	-5.880000
	49.049805	1450.705630	23.738000	-5.780000
	49.149811	1450.709428	23.780000	-5.870000
	49.249817	1450.717024	23.754000	-5.840000
	49.349823	1450.714492	23.754000	-5.920000
	49.449828	1450.714492	23.764000	-5.900000
	49.549834	1450.714492	23.764000	-5.900000
	49.649840	1450.713226	23.726000	-5.910000
	49.749846	1450.719556	23.730000	-5.850000
	49.849851	1450.732217	23.738000	-5.800000
	49.949857	1450.739813	23.732000	-5.840000
	50.049862	1450.747409	23.760000	-5.840000
	50.149868	1450.749941	23.752000	-5.880000
	50.249874	1450.751207	23.758000	-5.890000
	50.349880	1450.748675	23.750000	-5.920000
	50.449885	1450.752473	23.720000	-5.870000
	50.550891	1450.763868	23.738000	-5.810000
	50.649897	1450.773997	23.722000	-5.820000
	50.749903	1450.784125	23.760000	-5.820000
	50.849908	1450.790456	23.760000	-5.850000
	50.949914	1450.787924	23.758000	-5.920000
	51.049920	1450.787924	23.748000	-5.900000
	51.149926	1450.780327	23.730000	-5.960000
	51.249931	1450.780327	23.730000	-5.960000
	51.349937	1450.785392	23.712000	-5.860000
	51.449943	1450.787924	23.718000	-5.880000
	51.549948	1450.790456	23.744000	-5.880000
	51.649954	1450.791722	23.748000	-5.890000
	51.749960	1450.794254	23.764000	-5.880000
	51.849966	1450.799318	23.716000	-5.860000
	51.949971	1450.800585	23.702000	-5.890000
	52.052977	1450.808181	23.742000	-5.840000
	52.149983	1450.818310	23.740000	-5.820000
	52.251988	1450.824641	23.756000	-5.850000
	52.349994	1450.829705	23.752000	-5.860000
	52.450000	1450.827173	23.750000	-5.920000
	52.550005	1450.823375	23.750000	-5.930000
	52.658012	1450.823375	23.750000	-5.930000
	52.752017	1450.825907	23.724000	-5.880000
	52.860023	1450.834770	23.712000	-5.830000
	52.952028	1450.843633	23.744000	-5.830000
	53.051034	1450.844899	23.740000	-5.890000
	53.150040	1450.851229	23.732000	-5.850000
	53.261046	1450.846165	23.730000	-5.940000
	53.350051	1450.844899	23.726000	-5.910000
	53.450057	1450.849963	23.726000	-5.860000
	53.551063	1450.860093	23.720000	-5.820000
	53.658069	1450.868956	23.722000	-5.830000
	53.752074	1450.872754	23.742000	-5.870000
	53.900083	1450.876553	23.748000	-5.870000
	54.000089	1450.876553	23.738000	-5.900000
	54.117095	1450.879085	23.702000	-5.880000
	54.200100	1450.879085	23.702000	-5.880000
	54.300106	1450.879085	23.710000	-5.900000
	54.402112	1450.889214	23.702000	-5.820000
	54.500117	1450.898077	23.742000	-5.830000
	54.607123	1450.899344	23.732000	-5.890000
	54.709129	1450.900610	23.738000	-5.890000
	54.800134	1450.894279	23.718000	-5.950000
	54.909141	1450.885416	23.716000	-5.970000
	55.025147	1450.893013	23.730000	-5.840000
	55.100152	1450.904409	23.702000	-5.810000
	55.204157	1450.909474	23.706000	-5.860000
	55.300163	1450.908208	23.810000	-5.910000
	55.400168	1450.915805	23.716000	-5.840000
	55.500175	1450.919603	23.736000	-5.870000
	55.600180	1450.924668	23.732000	-5.860000
	55.714187	1450.930999	23.702000	-5.850000
	55.800191	1450.930999	23.702000	-5.850000
	55.913198	1450.937330	23.686000	-5.850000
	56.016204	1450.941129	23.694000	-5.870000
	56.121210	1450.949992	23.706000	-5.830000
	56.215215	1450.952525	23.722000	-5.880000
	56.301220	1450.948726	23.744000	-5.930000
	56.400226	1450.946194	23.706000	-5.920000
	56.500231	1450.944928	23.698000	-5.910000
	56.600237	1450.946194	23.712000	-5.890000
	56.700243	1450.946194	23.698000	-5.900000
	56.800249	1450.953791	23.722000	-5.840000
	56.900254	1450.958856	23.720000	-5.860000
	57.000260	1450.962655	23.728000	-5.870000
	57.100266	1450.955058	23.716000	-5.960000
	57.200272	1450.955058	23.716000	-5.960000
	57.300277	1450.960123	23.706000	-5.860000
	57.416284	1450.958856	23.696000	-5.910000
	57.500288	1450.970253	23.714000	-5.810000
	57.600295	1450.976584	23.716000	-5.850000
	57.702300	1450.972785	23.730000	-5.930000
	57.825307	1450.975318	23.708000	-5.880000
	57.899312	1450.968987	23.710000	-5.950000
	57.999317	1450.972785	23.678000	-5.870000
	58.099323	1450.971519	23.724000	-5.910000
	58.200329	1450.979117	23.716000	-5.840000
	58.309335	1450.977850	23.696000	-5.910000
	58.421341	1450.975318	23.698000	-5.920000
	58.499346	1450.975318	23.698000	-5.920000
	58.608352	1450.979117	23.694000	-5.870000
	58.702357	1450.974052	23.696000	-5.940000
	58.814364	1450.977851	23.688000	-5.870000
	58.912370	1450.982916	23.700000	-5.860000
	59.024376	1450.987981	23.696000	-5.860000
	59.100380	1450.989247	23.700000	-5.890000
	59.201386	1450.987981	23.696000	-5.910000
	59.299392	1450.984182	23.688000	-5.930000
	59.399397	1450.984182	23.688000	-5.900000
	59.520404	1450.990513	23.672000	-5.850000
	59.610409	1450.996845	23.694000	-5.850000
	59.699415	1451.000643	23.680000	-5.870000
	59.824421	1451.003176	23.714000	-5.880000
	59.920427	1451.003176	23.714000	-5.880000
	60.000432	1450.996845	23.676000	-5.950000
	60.099437	1450.996845	23.672000	-5.900000
	60.199443	1451.005709	23.708000	-5.830000
	60.299449	1451.010774	23.684000	-5.860000
	60.406455	1451.009507	23.690000	-5.910000
	60.506461	1451.003176	23.696000	-5.950000
	60.599466	1451.010774	23.660000	-5.840000
	60.699471	1451.017105	23.668000	-5.850000
	60.824479	1451.015839	23.720000	-5.910000
	60.899483	1451.015839	23.720000	-5.910000
	60.999489	1451.010774	23.674000	-5.940000
	61.102495	1451.010774	23.678000	-5.900000
	61.199500	1451.023437	23.696000	-5.800000
	61.299506	1451.027236	23.680000	-5.870000
	61.424513	1451.034834	23.656000	-5.840000
	61.499517	1451.032301	23.722000	-5.920000
	61.609524	1451.028503	23.708000	-5.930000
	61.699529	1451.024704	23.684000	-5.930000
	61.799535	1451.028503	23.682000	-5.870000
	61.902541	1451.027236	23.664000	-5.910000
	62.003546	1451.039900	23.698000	-5.800000
	62.099552	1451.041166	23.718000	-5.890000
	62.219559	1451.024705	23.668000	-6.030000
	62.299563	1451.028504	23.664000	-5.870000
	62.399569	1451.028504	23.664000	-5.870000
	62.499575	1451.034835	23.686000	-5.850000
	62.603580	1451.047499	23.686000	-5.800000
	62.699586	1451.047499	23.690000	-5.900000
	62.799592	1451.042434	23.696000	-5.940000
	62.899598	1451.043700	23.688000	-5.890000
	63.001603	1451.052564	23.670000	-5.830000
	63.113610	1451.057629	23.686000	-5.860000
	63.225616	1451.062695	23.688000	-5.860000
	63.299621	1451.065227	23.700000	-5.880000
	63.424627	1451.069026	23.676000	-5.870000
	63.499632	1451.069026	23.676000	-5.870000
	63.608638	1451.074091	23.634000	-5.860000
	63.717644	1451.085489	23.668000	-5.810000
	63.814650	1451.084222	23.698000	-5.910000
	63.902655	1451.081690	23.688000	-5.920000
	63.999660	1451.081690	23.682000	-5.900000
	64.099666	1451.081690	23.666000	-5.900000
	64.199672	1451.081690	23.670000	-5.900000
	64.305678	1451.086755	23.674000	-5.860000
	64.411684	1451.085489	23.692000	-5.910000
	64.499689	1451.088021	23.686000	-5.880000
	64.609695	1451.094353	23.632000	-5.850000
	64.709701	1451.094353	23.632000	-5.850000
	64.799706	1451.101951	23.664000	-5.840000
	64.900712	1451.107017	23.670000	-5.860000
	64.999718	1451.112082	23.682000	-5.860000
	65.099723	1451.114615	23.678000	-5.880000
	65.199729	1451.110816	23.670000	-5.930000
	65.314735	1451.113348	23.668000	-5.880000
	65.411741	1451.118414	23.670000	-5.860000
	65.517747	1451.122213	23.696000	-5.870000
	65.610753	1451.123479	23.662000	-5.890000
	65.699758	1451.117148	23.694000	-5.950000
	65.801764	1451.118414	23.660000	-5.890000
	65.909770	1451.118414	23.660000	-5.890000
	65.999775	1451.122213	23.682000	-5.870000
	66.120782	1451.129811	23.674000	-5.840000
	66.224788	1451.126012	23.686000	-5.930000
	66.320793	1451.124746	23.676000	-5.910000
	66.399798	1451.124746	23.680000	-5.900000
	66.499804	1451.123480	23.656000	-5.910000
	66.609810	1451.127279	23.660000	-5.870000
	66.714816	1451.129811	23.670000	-5.880000
	66.799820	1451.133611	23.672000	-5.870000
	66.899827	1451.133611	23.704000	-5.900000
	67.023833	1451.134877	23.674000	-5.890000
	67.120839	1451.134877	23.674000	-5.890000
	67.224845	1451.134877	23.662000	-5.900000
	67.299849	1451.145008	23.676000	-5.820000
	67.424856	1451.153873	23.690000	-5.830000
	67.514862	1451.146275	23.660000	-5.960000
	67.599866	1451.141209	23.684000	-5.940000
	67.701872	1451.137410	23.662000	-5.930000
	67.805878	1451.142476	23.664000	-5.860000
	67.907884	1451.150074	23.646000	-5.840000
	68.025891	1451.157673	23.666000	-5.840000
	68.099895	1451.162738	23.686000	-5.860000
	68.218902	1451.158939	23.674000	-5.930000
	68.313907	1451.158939	23.674000	-5.930000
	68.402912	1451.161472	23.652000	-5.880000
	68.520919	1451.160206	23.650000	-5.910000
	68.609924	1451.162738	23.650000	-5.880000
	68.701930	1451.167804	23.664000	-5.860000
	68.799935	1451.172870	23.656000	-5.860000
	68.899940	1451.165272	23.686000	-5.960000
	68.999947	1451.160206	23.680000	-5.940000
	69.099952	1451.156407	23.662000	-5.930000
	69.222959	1451.158940	23.664000	-5.880000
	69.299963	1451.158940	23.642000	-5.900000
	69.414970	1451.167805	23.660000	-5.830000
	69.511976	1451.170337	23.666000	-5.880000
	69.600981	1451.170337	23.666000	-5.880000
	69.707987	1451.174137	23.672000	-5.870000
	69.816993	1451.171604	23.670000	-5.920000
	69.899998	1451.179202	23.644000	-5.840000
	70.008004	1451.180469	23.654000	-5.890000
	70.115010	1451.180469	23.676000	-5.900000
	70.225017	1451.180469	23.692000	-5.900000
	70.300021	1451.184268	23.652000	-5.870000
	70.400026	1451.180469	23.664000	-5.930000
	70.500032	1451.181735	23.658000	-5.890000
	70.600038	1451.176670	23.652000	-5.940000
	70.700044	1451.179203	23.660000	-5.880000
	70.815050	1451.180469	23.628000	-5.890000
	70.921056	1451.193134	23.658000	-5.800000
	71.007061	1451.193134	23.658000	-5.800000
	71.121068	1451.181736	23.668000	-5.990000
	71.211073	1451.180470	23.692000	-5.910000
	71.321079	1451.174138	23.664000	-5.950000
	71.412085	1451.171605	23.644000	-5.920000
	71.500089	1451.180470	23.644000	-5.830000
	71.600095	1451.184270	23.656000	-5.870000
	71.700101	1451.188069	23.662000	-5.870000
	71.808107	1451.194401	23.668000	-5.850000
	71.922113	1451.194401	23.662000	-5.900000
	72.000118	1451.189335	23.654000	-5.940000
	72.115125	1451.188069	23.640000	-5.910000
	72.224131	1451.193135	23.620000	-5.860000
	72.300135	1451.193135	23.620000	-5.860000
	72.425142	1451.202000	23.654000	-5.830000
	72.500146	1451.208332	23.672000	-5.850000
	72.609153	1451.217197	23.656000	-5.830000
	72.721159	1451.210865	23.682000	-5.950000
	72.800164	1451.204533	23.640000	-5.950000
	72.900169	1451.205800	23.634000	-5.890000
	73.000175	1451.203267	23.656000	-5.920000
	73.100181	1451.213399	23.668000	-5.820000
	73.200187	1451.223530	23.652000	-5.820000
	73.300192	1451.229863	23.664000	-5.850000
	73.400198	1451.229863	23.686000	-5.900000
	73.503204	1451.228596	23.680000	-5.910000
	73.600210	1451.220998	23.670000	-5.960000
	73.701215	1451.218465	23.654000	-5.920000
	73.800221	1451.218465	23.654000	-5.920000
	73.922228	1451.215932	23.650000	-5.920000
	74.000232	1451.219731	23.648000	-5.870000
	74.100238	1451.224797	23.628000	-5.860000
	74.200244	1451.226064	23.648000	-5.890000
	74.308250	1451.228596	23.672000	-5.880000
	74.400255	1451.233662	23.674000	-5.860000
	74.500261	1451.227330	23.660000	-5.950000
	74.600267	1451.222265	23.644000	-5.940000
	74.700273	1451.218465	23.636000	-5.930000
	74.827280	1451.222265	23.644000	-5.870000
	74.900284	1451.226064	23.628000	-5.870000
	75.000289	1451.231130	23.634000	-5.860000
	75.100296	1451.231130	23.634000	-5.900000
	75.200301	1451.236196	23.646000	-5.860000
	75.300307	1451.238729	23.646000	-5.880000
	75.399312	1451.238729	23.646000	-5.880000
	75.499318	1451.238729	23.662000	-5.900000
	75.599324	1451.234929	23.646000	-5.930000
	75.699329	1451.231130	23.648000	-5.930000
	75.799335	1451.224798	23.646000	-5.950000
	75.899341	1451.224798	23.630000	-5.900000
	75.999347	1451.228597	23.634000	-5.870000
	76.099352	1451.234930	23.638000	-5.850000
	76.199358	1451.233663	23.662000	-5.910000
	76.299364	1451.237463	23.650000	-5.870000
	76.399370	1451.237463	23.668000	-5.900000
	76.499375	1451.234930	23.656000	-5.920000
	76.599381	1451.233663	23.642000	-5.910000
	76.699387	1451.229864	23.636000	-5.930000
	76.801393	1451.229864	23.636000	-5.930000
	76.899398	1451.227331	23.620000	-5.920000
	77.004404	1451.233663	23.632000	-5.850000
	77.099410	1451.237463	23.628000	-5.870000
	77.201416	1451.245062	23.636000	-5.840000
	77.299421	1451.255194	23.648000	-5.820000
	77.401427	1451.250128	23.660000	-5.940000
	77.499433	1451.251394	23.666000	-5.890000
	77.599438	1451.242529	23.642000	-5.970000
	77.699444	1451.237464	23.644000	-5.940000
	77.799450	1451.228599	23.648000	-5.970000
	77.899456	1451.227333	23.636000	-5.910000
	77.999461	1451.228599	23.634000	-5.890000
	78.099467	1451.234931	23.644000	-5.850000
	78.199472	1451.242530	23.644000	-5.840000
	78.299479	1451.242530	23.644000	-5.840000
	78.400484	1451.246330	23.658000	-5.870000
	78.499490	1451.247596	23.650000	-5.890000
	78.599495	1451.237465	23.654000	-5.980000
	78.703501	1451.238731	23.642000	-5.890000
	78.799507	1451.229866	23.634000	-5.970000
	78.899513	1451.229866	23.662000	-5.900000
	78.999518	1451.221002	23.664000	-5.970000
	79.099524	1451.215936	23.622000	-5.940000
	79.199530	1451.222268	23.632000	-5.850000
	79.299535	1451.224801	23.628000	-5.880000
	79.399541	1451.238732	23.614000	-5.790000
	79.499547	1451.246331	23.634000	-5.840000
	79.599553	1451.252664	23.646000	-5.850000
	79.716559	1451.252664	23.646000	-5.850000
	79.799564	1451.257730	23.676000	-5.860000
	79.905570	1451.260263	23.660000	-5.880000
	79.999576	1451.247598	23.642000	-6.000000
	80.099581	1451.247598	23.642000	-5.900000
	80.199587	1451.250131	23.618000	-5.880000
	80.299592	1451.256464	23.626000	-5.850000
	80.399599	1451.256464	23.638000	-5.900000
	80.499604	1451.262796	23.638000	-5.850000
	80.599610	1451.265329	23.630000	-5.880000
	80.699615	1451.267862	23.634000	-5.880000
	80.799621	1451.270395	23.648000	-5.880000
	80.903627	1451.270395	23.648000	-5.880000
	80.999633	1451.269129	23.642000	-5.910000
	81.121640	1451.266596	23.648000	-5.920000
	81.225646	1451.265329	23.658000	-5.910000
	81.299650	1451.265329	23.626000	-5.900000
	81.399656	1451.257731	23.660000	-5.960000
	81.499661	1451.248866	23.638000	-5.970000
	81.599667	1451.247599	23.616000	-5.910000
	81.699673	1451.252665	23.622000	-5.860000
	81.799678	1451.250132	23.630000	-5.920000
	81.899684	1451.256465	23.600000	-5.850000
	81.999690	1451.262797	23.626000	-5.850000
	82.106696	1451.265330	23.632000	-5.880000
	82.224703	1451.267863	23.636000	-5.880000
	82.321708	1451.267863	23.636000	-5.880000
	82.424714	1451.274196	23.656000	-5.850000
	82.499719	1451.274196	23.636000	-5.900000
	82.599724	1451.275462	23.656000	-5.890000
	82.712731	1451.277995	23.652000	-5.880000
	82.799736	1451.272929	23.634000	-5.940000
	82.900742	1451.275462	23.614000	-5.880000
	82.999747	1451.275462	23.630000	-5.900000
	83.099753	1451.279262	23.618000	-5.870000
	83.199759	1451.283061	23.626000	-5.870000
	83.299764	1451.284328	23.600000	-5.890000
	83.411771	1451.296993	23.602000	-5.800000
	83.499776	1451.300793	23.638000	-5.870000
	83.599782	1451.307125	23.628000	-5.850000
	83.712788	1451.309658	23.650000	-5.880000
	83.799793	1451.309658	23.650000	-5.880000
	83.921800	1451.314724	23.652000	-5.860000
	84.001804	1451.310925	23.624000	-5.930000
	84.116811	1451.312191	23.632000	-5.890000
	84.204816	1451.315991	23.630000	-5.870000
	84.300822	1451.309659	23.628000	-5.950000
	84.399827	1451.305859	23.644000	-5.930000
	84.499833	1451.298260	23.630000	-5.960000
	84.599839	1451.305859	23.628000	-5.840000
	84.699844	1451.305859	23.614000	-5.900000
	84.826852	1451.312192	23.634000	-5.850000
	84.913857	1451.312192	23.634000	-5.850000
	84.999862	1451.323591	23.626000	-5.810000
	85.099867	1451.324858	23.646000	-5.890000
	85.199873	1451.329924	23.640000	-5.860000
	85.321880	1451.329924	23.648000	-5.900000
	85.399885	1451.328657	23.640000	-5.910000
	85.499890	1451.324858	23.622000	-5.930000
	85.599896	1451.319792	23.606000	-5.940000
	85.699902	1451.318525	23.610000	-5.910000
	85.799907	1451.322325	23.594000	-5.870000
	85.899913	1451.323591	23.618000	-5.890000
	85.999919	1451.327391	23.588000	-5.870000
	86.099925	1451.334990	23.612000	-5.840000
	86.199930	1451.340057	23.646000	-5.860000
	86.299936	1451.340057	23.646000	-5.860000
	86.399942	1451.341323	23.608000	-5.890000
	86.499948	1451.334991	23.648000	-5.950000
	86.599953	1451.333724	23.638000	-5.910000
	86.699959	1451.332457	23.628000	-5.910000
	86.799964	1451.324858	23.612000	-5.960000
	86.899971	1451.323592	23.586000	-5.910000
	86.999976	1451.326125	23.624000	-5.880000
	87.099982	1451.337524	23.622000	-5.810000
	87.199987	1451.346390	23.622000	-5.830000
	87.299993	1451.359056	23.618000	-5.800000
	87.399999	1451.355257	23.642000	-5.930000
	87.500005	1451.355257	23.642000	-5.930000
	87.600010	1451.356523	23.634000	-5.890000
	87.700016	1451.347658	23.630000	-5.970000
	87.800022	1451.346391	23.636000	-5.910000
	87.900027	1451.341325	23.644000	-5.940000
	88.000033	1451.338792	23.598000	-5.920000
	88.100039	1451.342592	23.610000	-5.870000
	88.200045	1451.342592	23.590000	-5.900000
	88.300050	1451.340058	23.600000	-5.920000
	88.400056	1451.348924	23.608000	-5.830000
	88.500062	1451.353991	23.604000	-5.860000
	88.600068	1451.359057	23.608000	-5.860000
	88.700073	1451.362857	23.602000	-5.870000
	88.800079	1451.364123	23.642000	-5.890000
	88.900084	1451.364123	23.642000	-5.890000
	89.000091	1451.356524	23.630000	-5.960000
	89.100096	1451.352725	23.634000	-5.930000
	89.200102	1451.351458	23.642000	-5.910000
	89.300107	1451.350191	23.628000	-5.910000
	89.400113	1451.346392	23.648000	-5.930000
	89.500119	1451.343859	23.622000	-5.920000
	89.600125	1451.340059	23.618000	-5.930000
	89.701130	1451.337526	23.618000	-5.920000
	89.800136	1451.336260	23.592000	-5.910000
	89.900142	1451.336260	23.606000	-5.900000
	90.000148	1451.345126	23.606000	-5.830000
	90.100153	1451.345126	23.606000	-5.900000
	90.200159	1451.351459	23.608000	-5.850000
	90.300165	1451.351459	23.608000	-5.850000
	90.400170	1451.357791	23.616000	-5.850000
	90.500176	1451.366657	23.622000	-5.830000
	90.600182	1451.369191	23.612000	-5.880000
	90.700188	1451.376790	23.612000	-5.840000
	90.800193	1451.379323	23.626000	-5.880000
	90.900199	1451.380590	23.626000	-5.890000
	91.000205	1451.375524	23.602000	-5.940000
	91.100211	1451.381857	23.636000	-5.850000
	91.200216	1451.379324	23.634000	-5.920000
	91.300222	1451.376790	23.628000	-5.920000
	91.400228	1451.372991	23.626000	-5.930000
	91.500233	1451.372991	23.626000	-5.930000
	91.600239	1451.370458	23.628000	-5.920000
	91.700245	1451.364125	23.620000	-5.950000
	91.800251	1451.362858	23.612000	-5.910000
	91.900256	1451.362858	23.604000	-5.900000
	92.000262	1451.356526	23.606000	-5.950000
	92.100268	1451.351460	23.614000	-5.940000
	92.200274	1451.353993	23.598000	-5.880000
	92.300279	1451.353993	23.594000	-5.900000
	92.400285	1451.352726	23.628000	-5.910000
	92.500290	1451.356526	23.606000	-5.870000
	92.600296	1451.362859	23.612000	-5.850000
	92.700302	1451.370458	23.606000	-5.840000
	92.799308	1451.375525	23.620000	-5.860000
	92.899313	1451.375525	23.620000	-5.860000
	92.999319	1451.380591	23.598000	-5.860000
	93.099325	1451.383124	23.616000	-5.880000
	93.199331	1451.380591	23.598000	-5.920000
	93.299336	1451.390724	23.606000	-5.820000
	93.399342	1451.394524	23.616000	-5.870000
	93.499348	1451.397057	23.608000	-5.880000
	93.599353	1451.400857	23.628000	-5.870000
	93.699359	1451.398324	23.626000	-5.920000
	93.799365	1451.395790	23.626000	-5.920000
	93.899371	1451.393257	23.616000	-5.920000
	93.999376	1451.388191	23.650000	-5.940000
	94.099382	1451.388191	23.626000	-5.900000
	94.199388	1451.388191	23.628000	-5.900000
	94.299394	1451.383125	23.622000	-5.940000
	94.399399	1451.383125	23.622000	-5.940000
	94.499405	1451.379325	23.630000	-5.930000
	94.599411	1451.379325	23.596000	-5.900000
	94.699417	1451.376792	23.592000	-5.920000
	94.799422	1451.369193	23.622000	-5.960000
	94.899428	1451.372993	23.602000	-5.870000
	94.999434	1451.378059	23.612000	-5.860000
	95.099439	1451.384392	23.594000	-5.850000
	95.199445	1451.391992	23.606000	-5.840000
	95.299451	1451.390725	23.602000	-5.910000
	95.399457	1451.394525	23.632000	-5.870000
	95.499462	1451.394525	23.632000	-5.870000
	95.599468	1451.398325	23.628000	-5.870000
	95.699473	1451.393258	23.620000	-5.940000
	95.799479	1451.389459	23.622000	-5.930000
	95.899485	1451.384392	23.626000	-5.940000
	95.999491	1451.375527	23.608000	-5.970000
	96.099496	1451.367928	23.604000	-5.960000
	96.199502	1451.365394	23.600000	-5.920000
	96.299508	1451.369194	23.598000	-5.870000
	96.399514	1451.367928	23.612000	-5.910000
	96.499519	1451.370461	23.604000	-5.880000
	96.599525	1451.370461	23.614000	-5.900000
	96.699531	1451.375527	23.580000	-5.860000
	96.799537	1451.386927	23.594000	-5.810000
	96.899542	1451.388193	23.576000	-5.890000
	96.999548	1451.390726	23.592000	-5.880000
	97.099554	1451.390726	23.592000	-5.880000
	97.199559	1451.399593	23.592000	-5.830000
	97.299565	1451.400859	23.612000	-5.890000
	97.399571	1451.403392	23.626000	-5.880000
	97.499577	1451.410992	23.596000	-5.840000
	97.599582	1451.404659	23.608000	-5.950000
	97.699588	1451.403393	23.618000	-5.910000
	97.799594	1451.403393	23.616000	-5.900000
	97.899600	1451.397060	23.612000	-5.950000
	97.999605	1451.394527	23.634000	-5.920000
	98.099611	1451.388194	23.612000	-5.950000
	98.199616	1451.388194	23.596000	-5.900000
	98.299623	1451.388194	23.596000	-5.900000
	98.399628	1451.386927	23.586000	-5.910000
	98.499634	1451.395794	23.600000	-5.830000
	98.599639	1451.403393	23.588000	-5.840000
	98.699645	1451.404660	23.592000	-5.890000
	98.799651	1451.410993	23.592000	-5.850000
	98.899657	1451.413526	23.588000	-5.880000
	98.999662	1451.413526	23.610000	-5.900000
	99.099668	1451.419859	23.620000	-5.850000
	99.199674	1451.423659	23.600000	-5.870000
	99.299679	1451.429992	23.622000	-5.850000
	99.399685	1451.433792	23.608000	-5.870000
	99.499691	1451.432526	23.614000	-5.910000
	99.599697	1451.426193	23.624000	-5.950000
	99.699702	1451.424926	23.628000	-5.910000
	99.799708	1451.422393	23.598000	-5.920000
	99.899714	1451.412261	23.622000	-5.980000
	99.999720	1451.412261	23.622000	-5.980000
	100.099725	1451.405928	23.618000	-5.950000
	100.199731	1451.402128	23.616000	-5.930000
	100.299736	1451.404661	23.598000	-5.880000
	100.399743	1451.394529	23.606000	-5.980000
	100.499748	1451.390729	23.592000	-5.930000
	100.599754	1451.395796	23.570000	-5.860000
	100.699759	1451.393262	23.574000	-5.920000
	100.799765	1451.395796	23.572000	-5.880000
	100.899771	1451.394529	23.610000	-5.910000
	100.999777	1451.305891	23.364000	-6.600000
	101.099782	1451.332490	23.628000	-5.690000
	101.199788	1451.348956	23.596000	-5.770000
	101.299794	1451.360355	23.590000	-5.810000
	101.399800	1451.360355	23.590000	-5.810000
	101.499805	1451.371755	23.584000	-5.810000
	101.599811	1451.383154	23.590000	-5.810000
	101.699817	1451.389487	23.588000	-5.850000
	101.799822	1451.398353	23.586000	-5.830000
	101.899828	1451.405953	23.612000	-5.840000
	101.999834	1451.404687	23.620000	-5.910000
	102.099840	1451.408486	23.622000	-5.870000
	102.199845	1451.417353	23.614000	-5.830000
	102.299851	1451.422419	23.622000	-5.860000
	102.399857	1451.418620	23.638000	-5.930000
	102.499863	1451.418620	23.594000	-5.900000
	102.599868	1451.418620	23.594000	-5.900000
	102.699874	1451.418620	23.596000	-5.900000
	102.799880	1451.417353	23.586000	-5.910000
	102.899885	1451.413553	23.594000	-5.930000
	102.999891	1451.414820	23.592000	-5.890000
	103.099897	1451.418620	23.598000	-5.870000
	103.199903	1451.417353	23.596000	-5.910000
	103.299908	1451.421153	23.602000	-5.870000
	103.399914	1451.423686	23.570000	-5.880000
	103.499920	1451.437620	23.594000	-5.790000
	103.599926	1451.440153	23.580000	-5.880000
	103.699931	1451.442686	23.610000	-5.880000
	103.799937	1451.442686	23.610000	-5.880000
	103.899942	1451.445219	23.588000	-5.880000
	103.999949	1451.451553	23.586000	-5.850000
	104.099954	1451.454086	23.608000	-5.880000
	104.199960	1451.461686	23.608000	-5.840000
	104.299965	1451.461686	23.612000	-5.900000
	104.399971	1451.465486	23.596000	-5.870000
	104.499977	1451.468019	23.600000	-5.880000
	104.599983	1451.470552	23.590000	-5.880000
	104.699988	1451.470552	23.604000	-5.900000
	104.799994	1451.466753	23.608000	-5.930000
	104.900000	1451.466753	23.608000	-5.930000
	105.000006	1451.468019	23.580000	-5.890000
	105.100011	1451.464219	23.616000	-5.930000
	105.200017	1451.464219	23.624000	-5.900000
	105.300023	1451.464219	23.618000	-5.900000
	105.400028	1451.462953	23.622000	-5.910000
	105.500034	1451.460419	23.632000	-5.920000
	105.600040	1451.461686	23.612000	-5.890000
	105.700046	1451.455353	23.594000	-5.950000
	105.800051	1451.464220	23.598000	-5.830000
	105.900057	1451.464220	23.614000	-5.900000
	106.000062	1451.459153	23.594000	-5.940000
	106.100069	1451.464220	23.590000	-5.860000
	106.200074	1451.457887	23.608000	-5.950000
	106.300080	1451.452820	23.608000	-5.940000
	106.400085	1451.452820	23.608000	-5.940000
	106.500091	1451.450287	23.590000	-5.920000
	106.600097	1451.455354	23.608000	-5.860000
	106.700103	1451.452820	23.602000	-5.920000
	106.800108	1451.449021	23.580000	-5.930000
	106.900114	1451.446487	23.598000	-5.920000
	107.000120	1451.455354	23.596000	-5.830000
	107.100126	1451.455354	23.608000	-5.900000
	107.200131	1451.456621	23.614000	-5.890000
	107.300137	1451.459154	23.612000	-5.880000
	107.400143	1451.454088	23.598000	-5.940000
	107.500148	1451.457887	23.574000	-5.870000
	107.600154	1451.457887	23.574000	-5.870000
	107.700160	1451.461687	23.582000	-5.870000
	107.800166	1451.464221	23.606000	-5.880000
	107.900171	1451.468021	23.602000	-5.870000
	108.000177	1451.466754	23.610000	-5.910000
	108.100183	1451.461688	23.612000	-5.940000
	108.200189	1451.461688	23.590000	-5.900000
	108.300194	1451.461688	23.606000	-5.900000
	108.400200	1451.464221	23.614000	-5.880000
	108.500206	1451.470554	23.574000	-5.850000
	108.600212	1451.471821	23.598000	-5.890000
	108.700217	1451.474354	23.576000	-5.880000
	108.800223	1451.473088	23.548000	-5.910000
	108.900229	1451.473088	23.548000	-5.910000
	109.002234	1451.474354	23.592000	-5.890000
	109.100240	1451.481954	23.564000	-5.840000
	109.200246	1451.469288	23.538000	-6.000000
	109.300251	1451.474355	23.574000	-5.860000
	109.400257	1451.483222	23.560000	-5.830000
	109.500263	1451.492089	23.570000	-5.830000
	109.600268	1451.493355	23.576000	-5.890000
	109.700274	1451.489555	23.554000	-5.930000
	109.800280	1451.485755	23.576000	-5.930000
	109.900286	1451.487022	23.578000	-5.890000
	110.000291	1451.495889	23.560000	-5.830000
	110.100297	1451.498422	23.572000	-5.880000
	110.200303	1451.498422	23.572000	-5.880000
	110.299309	1451.504756	23.558000	-5.850000
	110.399314	1451.499689	23.552000	-5.940000
	110.499320	1451.499689	23.548000	-5.900000
	110.599326	1451.500956	23.570000	-5.890000
	110.699331	1451.500956	23.568000	-5.900000
	110.799337	1451.500956	23.556000	-5.900000
	110.899343	1451.508556	23.576000	-5.840000
	110.999349	1451.509823	23.568000	-5.890000
	111.099354	1451.512356	23.580000	-5.880000
	111.199360	1451.512356	23.544000	-5.900000
	111.299366	1451.522490	23.544000	-5.820000
	111.399372	1451.527557	23.570000	-5.860000
	111.499377	1451.527557	23.570000	-5.860000
	111.599383	1451.530090	23.576000	-5.880000
	111.699389	1451.533890	23.580000	-5.870000
	111.799395	1451.531357	23.576000	-5.920000
	111.899400	1451.536424	23.562000	-5.860000
	111.999406	1451.535157	23.582000	-5.910000
	112.099411	1451.537691	23.580000	-5.880000
	112.199417	1451.541491	23.564000	-5.870000
	112.299423	1451.545291	23.582000	-5.870000
	112.399429	1451.550358	23.578000	-5.860000
	112.499434	1451.557958	23.574000	-5.840000
	112.599440	1451.560492	23.592000	-5.880000
	112.699446	1451.559225	23.592000	-5.910000
	112.799452	1451.559225	23.592000	-5.910000
	112.899457	1451.557959	23.600000	-5.910000
	112.999463	1451.547825	23.602000	-5.980000
	113.099469	1451.541492	23.578000	-5.950000
	113.199474	1451.537692	23.578000	-5.930000
	113.299480	1451.533892	23.586000	-5.930000
	113.399486	1451.526291	23.584000	-5.960000
	113.499492	1451.513625	23.560000	-6.000000
	113.599497	1451.516158	23.576000	-5.880000
	113.699503	1451.513625	23.558000	-5.920000
	113.799509	1451.519959	23.568000	-5.850000
	113.899515	1451.522492	23.570000	-5.880000
	113.999520	1451.526292	23.550000	-5.870000
	114.099526	1451.526292	23.550000	-5.870000
	114.199532	1451.527559	23.568000	-5.890000
	114.299537	1451.536426	23.564000	-5.830000
	114.399543	1451.547827	23.536000	-5.810000
	114.499549	1451.556694	23.564000	-5.830000
	114.599555	1451.564295	23.560000	-5.840000
	114.699560	1451.570628	23.556000	-5.850000
	114.799566	1451.569362	23.564000	-5.910000
	114.899572	1451.566828	23.564000	-5.920000
	114.999578	1451.573162	23.532000	-5.850000
	115.099583	1451.575696	23.576000	-5.880000
	115.199589	1451.583296	23.570000	-5.840000
	115.299594	1451.584563	23.560000	-5.890000
	115.399601	1451.584563	23.572000	-5.900000
	115.499606	1451.584563	23.618000	-5.900000
	115.599612	1451.584563	23.618000	-5.900000
	115.699617	1451.583296	23.586000	-5.910000
	115.799623	1451.574429	23.592000	-5.970000
	115.899629	1451.570629	23.588000	-5.930000
	115.999635	1451.560496	23.590000	-5.980000
	116.099640	1451.585832	23.826000	-5.700000
	116.199646	1451.587099	23.564000	-5.890000
	116.299652	1451.584566	23.590000	-5.920000
	116.399658	1451.587099	23.596000	-5.880000
	116.499663	1451.587099	23.578000	-5.900000
	116.599669	1451.576966	23.594000	-5.980000
	116.699675	1451.570632	23.576000	-5.950000
	116.799680	1451.559232	23.580000	-5.990000
	116.899686	1451.557965	23.574000	-5.910000
	116.999692	1451.557965	23.574000	-5.910000
	117.099698	1451.555432	23.568000	-5.920000
	117.199703	1451.552898	23.598000	-5.920000
	117.299709	1451.552898	23.566000	-5.900000
	117.399714	1451.552898	23.570000	-5.900000
	117.499721	1451.542765	23.680000	-5.980000
	117.599726	1451.546565	23.530000	-5.870000
	117.699732	1451.547832	23.562000	-5.890000
	117.799737	1451.542765	23.586000	-5.940000
	117.899743	1451.545298	23.546000	-5.880000
	117.999749	1451.552899	23.566000	-5.840000
	118.099755	1451.552899	23.556000	-5.900000
	118.199760	1451.546565	23.544000	-5.950000
	118.299766	1451.552899	23.582000	-5.850000
	118.399772	1451.552899	23.582000	-5.850000
	118.499778	1451.556699	23.562000	-5.870000
	118.599783	1451.564300	23.538000	-5.840000
	118.699789	1451.566833	23.570000	-5.880000
	118.799795	1451.578234	23.538000	-5.810000
	118.899800	1451.584568	23.552000	-5.850000
	118.999806	1451.589635	23.562000	-5.860000
	119.099812	1451.587102	23.574000	-5.920000
	119.199818	1451.584568	23.568000	-5.920000
	119.299823	1451.588369	23.584000	-5.870000
	119.399829	1451.582035	23.584000	-5.950000
	119.499835	1451.582035	23.580000	-5.900000
	119.599841	1451.582035	23.580000	-5.900000
	119.699846	1451.578235	23.550000	-5.930000
	119.799852	1451.576968	23.574000	-5.910000
	119.899858	1451.574435	23.546000	-5.920000
	119.999864	1451.573168	23.550000	-5.910000
	120.099869	1451.571901	23.552000	-5.910000
	120.199875	1451.576968	23.556000	-5.860000
	120.299881	1451.579502	23.542000	-5.880000
	120.399886	1451.584569	23.534000	-5.860000
	120.499892	1451.594703	23.542000	-5.820000
	120.599898	1451.595970	23.560000	-5.890000
	120.699903	1451.602304	23.566000	-5.850000
	120.799909	1451.609905	23.554000	-5.840000
	120.899915	1451.604838	23.568000	-5.940000
	120.999921	1451.604838	23.568000	-5.940000
	121.099926	1451.603571	23.592000	-5.910000
	121.199932	1451.601037	23.586000	-5.920000
	121.299938	1451.589637	23.574000	-5.990000
	121.399943	1451.589637	23.578000	-5.900000
	121.499949	1451.587103	23.566000	-5.920000
	121.599955	1451.588370	23.552000	-5.890000
	121.699961	1451.580770	23.532000	-5.960000
	121.800966	1451.587104	23.552000	-5.850000
	121.899972	1451.592171	23.534000	-5.860000
	121.999978	1451.594704	23.552000	-5.880000
	122.099984	1451.594704	23.562000	-5.900000
	122.199989	1451.595971	23.562000	-5.890000
	122.299995	1451.599771	23.562000	-5.870000
	122.400001	1451.604839	23.578000	-5.860000
	122.500007	1451.604839	23.578000	-5.860000
	122.600012	1451.604839	23.566000	-5.900000
	122.700018	1451.599772	23.568000	-5.940000
	122.800024	1451.599772	23.584000	-5.900000
	122.900029	1451.603572	23.578000	-5.870000
	123.000035	1451.607372	23.578000	-5.870000
	123.100041	1451.601039	23.558000	-5.950000
	123.200047	1451.601039	23.536000	-5.900000
	123.300052	1451.603572	23.548000	-5.880000
	123.400058	1451.611173	23.544000	-5.840000
	123.500064	1451.611173	23.540000	-5.900000
	123.600070	1451.623841	23.538000	-5.800000
	123.700075	1451.630175	23.560000	-5.850000
	123.800081	1451.640310	23.564000	-5.820000
	123.900086	1451.641577	23.564000	-5.890000
	124.000093	1451.641577	23.562000	-5.900000
	124.100098	1451.641577	23.562000	-5.900000
	124.200104	1451.639043	23.578000	-5.920000
	124.300109	1451.631443	23.580000	-5.960000
	124.400115	1451.628909	23.564000	-5.920000
	124.500121	1451.621308	23.538000	-5.960000
	124.600127	1451.622575	23.530000	-5.890000
	124.700132	1451.620042	23.546000	-5.920000
	124.800138	1451.621308	23.532000	-5.890000
	124.900144	1451.626376	23.536000	-5.860000
	125.001150	1451.627642	23.534000	-5.890000
	125.100155	1451.632710	23.534000	-5.860000
	125.200161	1451.635243	23.566000	-5.880000
	125.300167	1451.631443	23.566000	-5.930000
	125.400172	1451.631443	23.566000	-5.930000
	125.500178	1451.630176	23.582000	-5.910000
	125.600184	1451.631443	23.566000	-5.890000
	125.700190	1451.627643	23.546000	-5.930000
	125.800195	1451.623842	23.542000	-5.930000
	125.901201	1451.626376	23.536000	-5.880000
	126.000206	1451.622576	23.534000	-5.930000
	126.100213	1451.625109	23.526000	-5.880000
	126.200218	1451.632710	23.538000	-5.840000
	126.300224	1451.637777	23.544000	-5.860000
	126.400229	1451.637777	23.550000	-5.900000
	126.500235	1451.633977	23.566000	-5.930000
	126.600241	1451.640311	23.548000	-5.850000
	126.700247	1451.641578	23.548000	-5.890000
	126.800252	1451.641578	23.548000	-5.890000
	126.900258	1451.633977	23.550000	-5.960000
	127.000264	1451.630177	23.550000	-5.930000
	127.100270	1451.632711	23.554000	-5.880000
	127.200275	1451.636511	23.522000	-5.870000
	127.300281	1451.639045	23.544000	-5.880000
	127.400287	1451.646646	23.542000	-5.840000
	127.500292	1451.655513	23.538000	-5.830000
	127.600298	1451.658047	23.532000	-5.880000
	127.700304	1451.659314	23.536000	-5.890000
	127.799310	1451.664381	23.560000	-5.860000
	127.899315	1451.663114	23.574000	-5.910000
	127.999321	1451.658047	23.558000	-5.940000
	128.099327	1451.652980	23.572000	-5.940000
	128.199332	1451.647913	23.546000	-5.940000
	128.299338	1451.647913	23.546000	-5.940000
	128.399344	1451.644113	23.472000	-5.930000
	128.499350	1451.645379	23.542000	-5.890000
	128.599355	1451.646646	23.540000	-5.890000
	128.699361	1451.659315	23.548000	-5.800000
	128.799367	1451.671984	23.686000	-5.800000
	128.899373	1451.673250	23.606000	-5.890000
	128.999378	1451.641583	23.286000	-6.150000
	129.099384	1451.656785	23.572000	-5.780000
	129.199389	1451.660586	23.564000	-5.870000
	129.299396	1451.665653	23.554000	-5.860000
	129.399401	1451.665653	23.538000	-5.900000
	129.499407	1451.668187	23.532000	-5.880000
	129.599412	1451.669454	23.552000	-5.890000
	129.699418	1451.668187	23.536000	-5.910000
	129.799424	1451.668187	23.524000	-5.900000
	129.899430	1451.668187	23.524000	-5.900000
	129.999435	1451.670721	23.522000	-5.880000
	130.099441	1451.677055	23.550000	-5.850000
	130.199447	1451.709996	23.554000	-5.640000
	130.299453	1451.750542	23.482000	-5.580000
	130.399458	1451.750542	23.564000	-5.900000
	130.499464	1451.739140	23.574000	-5.990000
	130.600470	1451.729005	23.556000	-5.980000
	130.699475	1451.718871	23.566000	-5.980000
	130.799481	1451.717604	23.558000	-5.910000
	130.899487	1451.720138	23.530000	-5.880000
	130.999493	1451.713803	23.546000	-5.950000
	131.099498	1451.712537	23.530000	-5.910000
	131.199504	1451.717604	23.534000	-5.860000
	131.299510	1451.717604	23.534000	-5.860000
	131.399516	1451.722672	23.520000	-5.860000
	131.499521	1451.723939	23.530000	-5.890000
	131.599527	1451.699870	23.552000	-6.090000
	131.699533	1451.649204	23.602000	-6.300000
	131.799539	1451.604872	23.612000	-6.250000
	131.899544	1451.561808	23.616000	-6.240000
	131.999550	1451.506082	23.652000	-6.340000
	132.099555	1451.459222	23.670000	-6.270000
	132.199561	1451.425026	23.658000	-6.170000
	132.299567	1451.400963	23.638000	-6.090000
	132.399573	1451.404762	23.630000	-5.870000
	132.499578	1451.436431	23.588000	-5.650000
	132.599584	1451.474435	23.594000	-5.600000
	132.699590	1451.508638	23.624000	-5.630000
	132.799596	1451.508638	23.624000	-5.630000
	132.899601	1451.518772	23.532000	-5.820000
	132.999607	1451.596064	23.626000	-5.290000
	133.099613	1451.680965	23.718000	-5.230000
	133.199618	1451.689833	23.624000	-5.830000
	133.299624	1451.698701	23.592000	-5.830000
	133.399630	1451.750652	23.604000	-5.490000
	133.499636	1451.808942	23.616000	-5.440000
	133.599641	1451.869770	23.584000	-5.420000
	133.699647	1451.919192	23.630000	-5.510000
	133.799653	1452.009184	23.474000	-5.190000
	133.899659	1452.047203	23.968000	-5.600000
	133.999664	1452.064944	23.638000	-5.760000
	134.099670	1452.092824	23.662000	-5.680000
	134.199676	1452.092824	23.662000	-5.680000
	134.299681	1452.109299	23.666000	-5.770000
	134.399687	1452.120704	23.662000	-5.810000
	134.499693	1452.129575	23.642000	-5.830000
	134.601698	1452.163794	23.696000	-5.630000
	134.699704	1452.172665	23.628000	-5.830000
	134.799710	1452.189140	23.634000	-5.770000
	134.899716	1452.200546	23.628000	-5.810000
	134.999722	1452.233500	23.588000	-5.640000
	135.099727	1452.261383	23.568000	-5.680000
	135.199733	1452.296874	23.560000	-5.620000
	135.299738	1452.324758	23.528000	-5.680000
	135.399745	1452.350109	23.502000	-5.700000
	135.499750	1452.383065	23.492000	-5.640000
	135.599756	1452.383065	23.492000	-5.640000
	135.699761	1452.409684	23.530000	-5.690000
	135.799767	1452.440107	23.534000	-5.660000
	135.899773	1452.441374	23.680000	-5.890000
	135.999779	1452.408423	23.272000	-6.160000
	136.099784	1452.418563	23.428000	-5.820000
	136.199790	1452.445183	23.486000	-5.690000
	136.299796	1452.445183	23.490000	-5.900000
	136.399802	1452.466732	23.532000	-5.730000
	136.499807	1452.423642	23.608000	-6.240000
	136.599813	1452.441388	23.530000	-5.760000
	136.699819	1452.450261	23.534000	-5.830000
	136.799824	1452.454063	23.562000	-5.870000
	136.899830	1452.466739	23.510000	-5.800000
	136.999836	1452.466739	23.510000	-5.800000
	137.099842	1452.497162	23.492000	-5.660000
	137.200847	1452.522516	23.480000	-5.700000
	137.299853	1452.544066	23.518000	-5.730000
	137.399858	1452.552939	23.534000	-5.830000
	137.499865	1452.555474	23.498000	-5.880000
	137.599870	1452.563080	23.496000	-5.840000
	137.699876	1452.597310	23.452000	-5.630000
	137.799881	1452.599845	23.496000	-5.880000
	137.899887	1452.607451	23.486000	-5.840000
	137.999893	1452.616325	23.464000	-5.830000
	138.099899	1452.627734	23.446000	-5.810000
	138.199904	1452.645482	23.460000	-5.760000
	138.299910	1452.645482	23.460000	-5.760000
	138.399916	1452.654356	23.468000	-5.830000
	138.499922	1452.661963	23.492000	-5.840000
	138.599927	1452.661963	23.504000	-5.900000
	138.699933	1452.665766	23.498000	-5.870000
	138.799939	1452.753267	22.984000	-5.210000
	138.899944	1452.731716	23.284000	-6.070000
	138.999950	1452.721575	23.488000	-5.980000
	139.099956	1452.585974	23.574000	-6.970000
	139.199962	1452.602454	23.500000	-5.770000
	139.299967	1452.608793	23.458000	-5.850000
	139.399973	1452.621470	23.472000	-5.800000
	139.499979	1452.635414	23.472000	-5.790000
	139.599985	1452.639217	23.482000	-5.870000
	139.699990	1452.639217	23.482000	-5.870000
	139.799996	1452.640485	23.486000	-5.890000
	139.900002	1452.654430	23.474000	-5.790000
	140.000008	1452.664572	23.450000	-5.820000
	140.100013	1452.687392	23.440000	-5.720000
	140.200019	1452.701338	23.468000	-5.790000
	140.300025	1452.708944	23.490000	-5.840000
	140.400030	1452.710212	23.480000	-5.890000
	140.500036	1452.684860	23.414000	-6.100000
	140.600042	1452.706412	23.290000	-5.730000
	140.700047	1452.698806	23.462000	-5.960000
	140.800053	1452.695003	23.482000	-5.930000
	140.900059	1452.695003	23.482000	-5.930000
	141.000064	1452.695003	23.490000	-5.900000
	141.100070	1452.691200	23.444000	-5.930000
	141.200076	1452.697539	23.440000	-5.850000
	141.300082	1452.708948	23.464000	-5.810000
	141.400087	1452.716555	23.484000	-5.840000
	141.500093	1452.712752	23.524000	-5.930000
	141.600099	1452.712752	23.478000	-5.900000
	141.700105	1452.708949	23.476000	-5.930000
	141.800110	1452.711484	23.468000	-5.880000
	141.900116	1452.716555	23.472000	-5.860000
	142.000122	1452.707681	23.486000	-5.970000
	142.100128	1452.703878	23.464000	-5.930000
	142.200133	1452.703878	23.464000	-5.930000
	142.300139	1452.703878	23.452000	-5.900000
	142.400145	1452.707681	23.504000	-5.870000
	142.500150	1452.744450	23.626000	-5.610000
	142.600156	1452.736844	23.508000	-5.960000
	142.700162	1452.727970	23.468000	-5.970000
	142.800168	1452.727970	23.450000	-5.900000
	142.900173	1452.757131	23.286000	-5.670000
	143.000179	1452.679815	23.536000	-6.510000
	143.100185	1452.683618	23.452000	-5.870000
	143.200191	1452.682350	23.500000	-5.910000
	143.300196	1452.696296	23.450000	-5.790000
	143.450205	1452.703902	23.480000	-5.840000
	143.550210	1452.703902	23.480000	-5.840000
	143.650216	1452.700099	23.486000	-5.930000
	143.750222	1452.708974	23.436000	-5.830000
	143.850228	1452.717848	23.426000	-5.830000
	143.950233	1452.731794	23.422000	-5.790000
	144.050239	1452.743204	23.436000	-5.810000
	144.150245	1452.745739	23.444000	-5.880000
	144.250250	1452.739401	23.436000	-5.950000
	144.350256	1452.727991	23.352000	-5.990000
	144.450262	1452.745741	23.402000	-5.760000
	144.550268	1452.745741	23.402000	-5.760000
	144.650273	1452.741938	23.420000	-5.930000
	144.750279	1452.729261	23.386000	-6.000000
	144.850285	1452.715316	23.448000	-6.010000
	144.950291	1452.776182	23.304000	-5.420000
	145.050296	1452.717874	23.522000	-6.360000
	145.150302	1452.691254	23.276000	-6.110000
	145.249308	1452.677310	23.438000	-6.010000
	145.349313	1452.653225	23.406000	-6.090000
	145.449319	1452.616467	23.528000	-6.190000
	145.549325	1452.611396	23.416000	-5.940000
	145.649331	1452.596185	23.426000	-6.020000
	145.749336	1452.591115	23.430000	-5.940000
	145.849342	1452.594918	23.370000	-5.870000
	145.949347	1452.608862	23.442000	-5.790000
	146.049354	1452.584779	23.330000	-6.090000
	146.149359	1452.584779	23.330000	-6.090000
	146.249365	1452.579709	23.370000	-5.940000
	146.349370	1452.521409	23.346000	-6.360000
	146.449376	1452.501129	23.374000	-6.060000
	146.549382	1452.496059	23.388000	-5.940000
	146.649388	1452.478315	23.414000	-6.040000
	146.749393	1452.466907	23.392000	-5.990000
	146.849399	1452.454233	23.394000	-6.000000
	146.949405	1452.426350	23.452000	-6.120000
	147.049411	1452.394666	23.422000	-6.150000
	147.152417	1452.394666	23.422000	-6.150000
	147.249422	1452.393399	23.442000	-5.910000
	147.349428	1452.389597	23.394000	-5.930000
	147.452434	1452.385794	23.380000	-5.930000
	147.499436	1452.385794	23.392000	-5.900000
	147.653445	1452.388329	23.424000	-5.880000
	147.699448	1452.389597	23.404000	-5.890000
	147.849456	1452.384527	23.404000	-5.940000
	147.949462	1452.383260	23.388000	-5.910000
	148.049468	1452.383260	23.388000	-5.900000
	148.149474	1452.390864	23.406000	-5.840000
	148.250479	1452.390864	23.416000	-5.900000
	148.349485	1452.389597	23.412000	-5.910000
	148.449491	1452.388330	23.378000	-5.910000
	148.499494	1452.388330	23.378000	-5.910000
	148.653502	1452.390864	23.394000	-5.880000
	148.749508	1452.394667	23.416000	-5.870000
	148.849514	1462.708284	0.972000	48.000000
	148.949519	1522.153318	0.260000	75.650000
	149.055525	1564.804037	0.322000	72.580000
	149.149531	1693.909019	0.314000	79.150000
	149.250536	1715.542830	0.428000	61.480000
	149.299539	1746.652912	0.428000	67.350000
	149.449548	1808.284838	0.368000	74.610000
	149.550554	1801.377930	1.028000	-43.810000
	149.649559	1833.775780	0.500000	67.230000
	149.749565	1807.470623	2.406000	-77.960000
	149.852571	1753.316821	3.412000	-87.800000
	149.949576	1753.316821	3.412000	-87.800000
	150.056582	1708.612669	3.952000	-86.170000
	150.149588	1699.143603	0.990000	-54.640000
	150.254594	1720.697462	0.588000	61.350000
	150.349599	1748.144299	0.554000	65.390000
	150.452605	1813.213672	0.366000	75.020000
	150.549611	1876.471022	0.394000	74.520000
	150.649617	2029.934668	0.366000	79.120000
	150.754622	2083.266973	0.442000	71.930000
	150.849628	2139.292124	0.542000	72.170000
	150.949634	2295.565087	0.498000	78.710000
	151.049639	2440.935428	0.556000	78.120000
	151.150645	2467.356085	0.874000	58.130000
	151.249651	2467.356085	0.874000	58.130000
	151.349657	2451.908785	1.986000	-58.170000
	151.452662	NaN	1.394000	-95.960000
	151.549668	NaN	1.374000	-95.010000
	151.653674	NaN	1.378000	-95.570000
	151.749680	NaN	1.356000	-95.200000
	151.853685	NaN	1.368000	-94.990000
	151.956691	NaN	1.352000	-94.660000
	152.049696	NaN	1.364000	-94.540000
	152.149702	NaN	1.356000	-94.570000
	152.249708	NaN	1.350000	-94.370000
	152.349714	NaN	1.380000	-94.980000
	152.449719	NaN	1.404000	-95.150000
	152.556726	NaN	1.372000	-95.090000
	152.652731	NaN	1.372000	-95.090000
	152.756737	NaN	1.366000	-94.820000
	152.853743	NaN	1.350000	-94.760000
	152.958749	NaN	1.358000	-95.270000
	153.049754	NaN	1.378000	-95.020000
	153.150760	NaN	1.366000	-94.980000
	153.252765	NaN	1.366000	-95.510000
	153.353771	NaN	1.374000	-95.000000
	153.449777	NaN	1.376000	-95.950000
	153.549782	NaN	1.360000	-94.600000
	153.649788	NaN	1.354000	-95.880000
	153.749794	NaN	1.372000	-95.770000
	153.849800	NaN	1.374000	-94.550000
	153.949805	NaN	1.364000	-95.120000
	154.049811	NaN	1.368000	-95.170000
	154.149817	NaN	1.368000	-95.170000
	154.249823	NaN	1.372000	-94.510000
	154.351828	NaN	1.372000	-94.600000
	154.449834	NaN	1.350000	-95.100000
	154.549839	NaN	1.372000	-95.180000
	154.654846	NaN	1.362000	-94.800000
	154.755851	NaN	1.360000	-94.510000
	154.849857	NaN	1.398000	-95.660000
	154.950862	NaN	1.356000	-94.390000
	155.056869	NaN	1.370000	-95.220000
	155.158875	NaN	1.392000	-94.240000
	155.253880	NaN	1.382000	-95.020000
	155.349885	NaN	1.344000	-94.640000
	155.452891	NaN	1.344000	-94.640000
	155.556897	NaN	1.362000	-94.930000
	155.653903	NaN	1.370000	-94.060000
	155.749908	NaN	1.356000	-94.350000
	155.851914	NaN	1.366000	-94.870000
	155.950920	NaN	1.344000	-95.200000
	156.050926	NaN	1.364000	-95.420000
	156.156931	NaN	1.342000	-95.890000
	156.254937	NaN	1.366000	-95.120000
	156.358943	NaN	1.368000	-96.030000
	156.450948	NaN	1.360000	-95.010000
	156.556954	NaN	1.378000	-95.490000
	156.649960	NaN	1.378000	-95.490000
	156.749965	NaN	1.342000	-95.030000
	156.849971	NaN	1.368000	-95.540000
	156.950977	NaN	1.370000	-94.850000
	157.052983	NaN	1.380000	-95.020000
	157.149988	NaN	1.392000	-94.900000
	157.253994	NaN	1.362000	-95.250000
	157.357000	NaN	1.374000	-95.000000
	157.450006	NaN	1.378000	-95.040000
	157.550011	NaN	NaN	-95.620000
	157.650017	NaN	NaN	-95.620000
	157.750022	NaN	NaN	NaN
	157.853028	NaN	NaN	NaN
	157.950034	NaN	NaN	NaN
	158.054040	NaN	NaN	NaN
	158.150045	NaN	NaN	NaN
	158.262052	NaN	NaN	NaN
	158.350057	NaN	NaN	NaN
	158.511066	NaN	NaN	NaN
	158.600071	NaN	NaN	NaN
	158.700077	NaN	NaN	NaN
	158.804083	NaN	NaN	NaN
	158.900088	NaN	NaN	NaN
	159.004095	NaN	NaN	NaN
	159.104100	NaN	NaN	NaN
	159.201106	NaN	NaN	NaN
	159.300111	NaN	NaN	NaN
	159.403117	NaN	NaN	NaN
	159.500123	NaN	NaN	NaN
	159.603128	NaN	NaN	NaN
	159.700134	NaN	NaN	NaN
	159.800140	NaN	NaN	NaN
	159.900146	NaN	NaN	NaN
	160.000151	NaN	NaN	NaN
	160.100157	NaN	NaN	NaN
	160.200163	NaN	NaN	NaN
	160.300169	NaN	NaN	NaN
	160.403174	NaN	NaN	NaN
	160.500180	NaN	NaN	NaN
	160.600186	NaN	NaN	NaN
	160.700191	NaN	NaN	NaN
	160.800197	NaN	NaN	NaN
	160.900203	NaN	NaN	NaN
	161.000208	NaN	NaN	NaN
	161.101214	NaN	NaN	NaN
	161.200220	NaN	NaN	NaN
	161.300226	NaN	NaN	NaN
	161.400231	NaN	NaN	NaN
	161.500237	NaN	NaN	NaN
	161.600243	NaN	NaN	NaN
	161.700249	NaN	NaN	NaN
	161.800254	NaN	NaN	NaN
	161.900260	NaN	NaN	NaN
	162.000266	1450.408451	23.360000	-2.680000
	162.102272	1450.752124	23.378000	-3.190000
	162.200277	1451.038676	23.368000	-3.640000
	162.300283	1451.279555	23.394000	-4.000000
	162.400289	1451.487464	23.388000	-4.260000
	162.500294	1451.656058	23.410000	-4.570000
	162.600300	1451.798028	23.400000	-4.780000
	162.700306	1451.914642	23.368000	-4.980000
	162.803312	1451.914642	23.368000	-4.980000
	162.900317	1452.013511	23.394000	-5.120000
	163.000323	1452.099705	23.390000	-5.220000
	163.099329	1452.166884	23.388000	-5.370000
	163.199334	1452.230262	23.376000	-5.400000
	163.299340	1452.286035	23.356000	-5.460000
	163.399346	1452.340543	23.384000	-5.470000
	163.499352	1452.374767	23.390000	-5.630000
	163.599357	1452.401386	23.386000	-5.690000
	163.699363	1452.424202	23.364000	-5.720000
	163.803369	1452.459696	23.412000	-5.620000
	163.899374	1452.459696	23.412000	-5.620000
	163.999380	1452.478710	23.396000	-5.750000
	164.099386	1452.490118	23.378000	-5.810000
	164.199391	1452.510400	23.374000	-5.740000
	164.299397	1452.525612	23.368000	-5.780000
	164.402403	1452.540823	23.398000	-5.780000
	164.499409	1452.549697	23.386000	-5.830000
	164.599414	1452.547161	23.386000	-5.920000
	164.699420	1452.554767	23.358000	-5.840000
	164.803426	1452.562373	23.390000	-5.840000
	164.899432	1452.563641	23.388000	-5.890000
	165.003438	1452.567443	23.374000	-5.870000
	165.099443	1452.581388	23.384000	-5.790000
	165.199449	1452.581388	23.384000	-5.790000
	165.299454	1452.587726	23.390000	-5.850000
	165.399460	1452.585191	23.382000	-5.920000
	165.499466	1452.587726	23.370000	-5.880000
	165.603472	1452.596600	23.384000	-5.830000
	165.699477	1452.601670	23.384000	-5.860000
	165.810484	1452.600403	23.384000	-5.910000
	165.899489	1452.594065	23.382000	-5.950000
	165.999495	1452.596600	23.370000	-5.880000
	166.099500	1452.606741	23.386000	-5.820000
	166.199506	1452.600403	23.396000	-5.950000
	166.299511	1452.596600	23.374000	-5.930000
	166.399518	1452.600403	23.364000	-5.870000
	166.499523	1452.600403	23.364000	-5.870000
	166.599529	1452.608009	23.386000	-5.840000
	166.700535	1452.606742	23.398000	-5.910000
	166.799540	1452.608009	23.376000	-5.890000
	166.901546	1452.609277	23.354000	-5.890000
	166.999552	1452.615615	23.358000	-5.850000
	167.099557	1452.614348	23.382000	-5.910000
	167.199563	1452.614348	23.404000	-5.900000
	167.299569	1452.611812	23.364000	-5.920000
	167.399575	1452.615615	23.374000	-5.870000
	167.501580	1452.616883	23.398000	-5.890000
	167.599586	1452.615615	23.396000	-5.910000
	167.699592	1452.611812	23.380000	-5.930000
	167.799597	1452.615615	23.388000	-5.870000
	167.899603	1452.614348	23.388000	-5.910000
	167.999609	1452.623222	23.384000	-5.830000
	168.099615	1452.623222	23.384000	-5.830000
	168.199620	1452.618151	23.368000	-5.940000
	168.299626	1452.620686	23.360000	-5.880000
	168.399632	1452.619419	23.378000	-5.910000
	168.499638	1452.615616	23.406000	-5.930000
	168.603643	1452.613081	23.364000	-5.920000
	168.699649	1452.618151	23.352000	-5.860000
	168.799654	1452.625757	23.370000	-5.840000
	168.899661	1452.623222	23.362000	-5.920000
	168.999666	1452.623222	23.364000	-5.900000
	169.099672	1452.624490	23.372000	-5.890000
	169.202678	1452.627025	23.396000	-5.880000
	169.299683	1452.615617	23.384000	-5.990000
	169.399689	1452.615617	23.384000	-5.990000
	169.499695	1452.618152	23.358000	-5.880000
	169.605701	1452.621955	23.372000	-5.870000
	169.699706	1452.628293	23.392000	-5.850000
	169.799712	1452.628293	23.374000	-5.900000
	169.899718	1452.633364	23.388000	-5.860000
	169.999723	1452.634632	23.364000	-5.890000
	170.099729	1452.629561	23.388000	-5.940000
	170.199735	1452.620688	23.364000	-5.970000
	170.303741	1452.620688	23.368000	-5.900000
	170.400746	1452.624491	23.380000	-5.870000
	170.499752	1452.630829	23.372000	-5.850000
	170.599758	1452.630829	23.344000	-5.900000
	170.699763	1452.634632	23.370000	-5.870000
	170.799769	1452.634632	23.370000	-5.870000
	170.899775	1452.633365	23.380000	-5.910000
	170.999781	1452.638435	23.378000	-5.860000
	171.099786	1452.640971	23.372000	-5.880000
	171.199792	1452.646041	23.374000	-5.860000
	171.299798	1452.646041	23.394000	-5.900000
	171.399803	1452.652380	23.376000	-5.850000
	171.499809	1452.657451	23.368000	-5.860000
	171.599815	1452.657451	23.388000	-5.900000
	171.699821	1452.654915	23.378000	-5.920000
	171.799826	1452.657451	23.390000	-5.880000
	171.899832	1452.659986	23.366000	-5.880000
	171.999838	1452.657451	23.388000	-5.920000
	172.099844	1452.648577	23.348000	-5.970000
	172.199849	1452.653648	23.348000	-5.860000
	172.299855	1452.653648	23.348000	-5.860000
	172.403861	1452.656183	23.390000	-5.880000
	172.499866	1452.657451	23.382000	-5.890000
	172.599872	1452.659987	23.362000	-5.880000
	172.699878	1452.659987	23.390000	-5.900000
	172.799883	1452.658719	23.350000	-5.910000
	172.899889	1452.654916	23.362000	-5.930000
	172.999895	1452.665058	23.354000	-5.820000
	173.099901	1452.666325	23.360000	-5.890000
	173.199906	1452.667593	23.384000	-5.890000
	173.299912	1452.662522	23.378000	-5.940000
	173.399918	1452.658719	23.364000	-5.930000
	173.500924	1452.668861	23.376000	-5.820000
	173.599929	1452.670129	23.380000	-5.890000
	173.699935	1452.665058	23.400000	-5.940000
	173.799941	1452.663790	23.352000	-5.910000
	173.899946	1452.666326	23.358000	-5.880000
	173.999952	1452.666326	23.358000	-5.880000
	174.099958	1452.665058	23.374000	-5.910000
	174.199964	1452.663791	23.356000	-5.910000
	174.299969	1452.668861	23.340000	-5.860000
	174.399975	1452.670129	23.366000	-5.890000
	174.499981	1452.667594	23.396000	-5.920000
	174.599987	1452.667594	23.346000	-5.900000
	174.699992	1452.677736	23.372000	-5.820000
	174.799998	1452.681539	23.366000	-5.870000
	174.900003	1452.673933	23.382000	-5.960000
	175.000010	1452.672665	23.354000	-5.910000
	175.100015	1452.682807	23.358000	-5.820000
	175.200021	1452.687878	23.396000	-5.860000
	175.300026	1452.681539	23.352000	-5.950000
	175.400032	1452.681539	23.352000	-5.950000
	175.501038	1452.680272	23.340000	-5.910000
	175.600044	1452.685343	23.352000	-5.860000
	175.700049	1452.685343	23.364000	-5.900000
	175.806056	1452.680272	23.364000	-5.940000
	175.900061	1452.685343	23.354000	-5.860000
	176.000066	1452.689146	23.392000	-5.870000
	176.100072	1452.682808	23.376000	-5.950000
	176.200078	1452.684075	23.348000	-5.890000
	176.300084	1452.692949	23.350000	-5.830000
	176.400089	1452.686611	23.370000	-5.950000
	176.500095	1452.680273	23.354000	-5.950000
	176.600101	1452.691682	23.362000	-5.810000
	176.701107	1452.692950	23.368000	-5.890000
	176.800112	1452.692950	23.368000	-5.890000
	176.901118	1452.690415	23.356000	-5.920000
	177.000124	1452.692950	23.368000	-5.880000
	177.100130	1452.691682	23.352000	-5.910000
	177.200135	1452.690415	23.382000	-5.910000
	177.300141	1452.689147	23.356000	-5.910000
	177.400146	1452.692950	23.362000	-5.870000
	177.500152	1452.696753	23.358000	-5.870000
	177.600158	1452.687880	23.372000	-5.970000
	177.700164	1452.696754	23.354000	-5.830000
	177.800169	1452.700557	23.378000	-5.870000
	177.900175	1452.701825	23.382000	-5.890000
	178.000181	1452.700557	23.368000	-5.910000
	178.100187	1452.705628	23.366000	-5.860000
	178.200192	1452.705628	23.352000	-5.900000
	178.300198	1452.698022	23.360000	-5.960000
	178.400204	1452.691684	23.342000	-5.950000
	178.500209	1452.691684	23.342000	-5.950000
	178.600215	1452.701826	23.332000	-5.820000
	178.700221	1452.701826	23.364000	-5.900000
	178.800227	1452.696755	23.370000	-5.940000
	178.900232	1452.699290	23.338000	-5.880000
	179.000238	1452.705629	23.360000	-5.850000
	179.100244	1452.708164	23.374000	-5.880000
	179.200250	1452.703094	23.356000	-5.940000
	179.300255	1452.706897	23.368000	-5.870000
	179.400261	1452.710700	23.362000	-5.870000
	179.500267	1452.715771	23.332000	-5.860000
	179.605273	1452.715771	23.332000	-5.860000
	179.700278	1452.720842	23.358000	-5.860000
	179.800284	1452.719574	23.380000	-5.910000
	179.902290	1452.719574	23.386000	-5.900000
	180.000295	1452.718307	23.352000	-5.910000
	180.100301	1452.714503	23.360000	-5.930000
	180.199306	1452.708165	23.350000	-5.950000
	180.302312	1452.709433	23.356000	-5.890000
	180.399318	1452.710700	23.358000	-5.890000
	180.499324	1452.715771	23.378000	-5.860000
	180.599329	1452.717039	23.336000	-5.890000
	180.699335	1452.722110	23.354000	-5.860000
	180.799341	1452.722110	23.342000	-5.900000
	180.899347	1452.725913	23.372000	-5.870000
	180.999352	1452.728449	23.338000	-5.880000
	181.099358	1452.725913	23.368000	-5.920000
	181.199364	1452.725913	23.368000	-5.920000
	181.299370	1452.724646	23.344000	-5.910000
	181.399375	1452.733520	23.340000	-5.830000
	181.499381	1452.733520	23.380000	-5.900000
	181.599387	1452.736056	23.376000	-5.880000
	181.699392	1452.737324	23.350000	-5.890000
	181.799398	1452.738591	23.382000	-5.890000
	181.899404	1452.737324	23.362000	-5.910000
	181.999410	1452.741127	23.366000	-5.870000
	182.099415	1452.746198	23.384000	-5.860000
	182.199421	1452.746198	23.360000	-5.900000
	182.299427	1452.746198	23.334000	-5.900000
	182.399433	1452.750001	23.376000	-5.870000
	182.499438	1452.746198	23.324000	-5.930000
	182.599444	1452.737324	23.336000	-5.970000
	182.699450	1452.737324	23.336000	-5.970000
	182.799455	1452.737324	23.360000	-5.900000
	182.899461	1452.739859	23.346000	-5.880000
	182.999467	1452.738592	23.318000	-5.910000
	183.099473	1452.746198	23.370000	-5.840000
	183.199478	1452.743663	23.364000	-5.920000
	183.299484	1452.744931	23.340000	-5.890000
	183.399490	1452.744931	23.352000	-5.900000
	183.499496	1452.744931	23.346000	-5.900000
	183.599501	1452.743663	23.326000	-5.910000
	183.705507	1452.742395	23.362000	-5.910000
	183.799512	1452.736057	23.342000	-5.950000
	183.899518	1452.746199	23.334000	-5.820000
	183.999524	1452.756341	23.372000	-5.820000
	184.099530	1452.756341	23.372000	-5.820000
	184.199535	1452.752538	23.358000	-5.930000
	184.299541	1452.755074	23.342000	-5.880000
	184.399547	1452.756341	23.356000	-5.890000
	184.499553	1452.750003	23.358000	-5.950000
	184.599558	1452.756342	23.344000	-5.850000
	184.699564	1452.762681	23.358000	-5.850000
	184.799570	1452.755074	23.350000	-5.960000
	184.900576	1452.757610	23.334000	-5.880000
	184.999581	1452.753807	23.342000	-5.930000
	185.099587	1452.760146	23.350000	-5.850000
	185.199593	1452.767752	23.348000	-5.840000
	185.299598	1452.771556	23.360000	-5.870000
	185.399604	1452.771556	23.360000	-5.870000
	185.499610	1452.769020	23.350000	-5.920000
	185.599616	1452.770288	23.356000	-5.890000
	185.699621	1452.774091	23.372000	-5.870000
	185.799627	1452.772824	23.330000	-5.910000
	185.899633	1452.776627	23.326000	-5.870000
	185.999639	1452.780430	23.338000	-5.870000
	186.099644	1452.776627	23.326000	-5.930000
	186.199650	1452.785502	23.354000	-5.830000
	186.299655	1452.786770	23.350000	-5.890000
	186.399661	1452.789305	23.340000	-5.880000
	186.499667	1452.795644	23.350000	-5.850000
	186.603673	1452.788038	23.348000	-5.960000
	186.699678	1452.781699	23.336000	-5.950000
	186.804685	1452.781699	23.336000	-5.950000
	186.899690	1452.788038	23.344000	-5.850000
	186.999696	1452.782967	23.368000	-5.940000
	187.099701	1452.788038	23.344000	-5.860000
	187.199707	1452.790574	23.386000	-5.880000
	187.299713	1452.784235	23.354000	-5.950000
	187.399718	1452.784235	23.346000	-5.900000
	187.499724	1452.789306	23.378000	-5.860000
	187.599730	1452.782967	23.328000	-5.950000
	187.699736	1452.785503	23.326000	-5.880000
	187.799741	1452.784235	23.376000	-5.910000
	187.899747	1452.785503	23.336000	-5.890000
	187.999753	1452.784235	23.350000	-5.910000
	188.099759	1452.782967	23.366000	-5.910000
	188.199764	1452.780432	23.330000	-5.920000
	188.299770	1452.780432	23.330000	-5.920000
	188.399776	1452.776629	23.354000	-5.930000
	188.502781	1452.770290	23.342000	-5.950000
	188.599787	1452.782968	23.350000	-5.800000
	188.699793	1452.794379	23.346000	-5.810000
	188.799798	1452.784237	23.342000	-5.980000
	188.899804	1452.780433	23.350000	-5.930000
	188.999810	1452.781701	23.352000	-5.890000
	189.099816	1452.777898	23.346000	-5.930000
	189.199821	1452.784237	23.346000	-5.850000
	189.299827	1452.791844	23.356000	-5.840000
	189.399833	1452.791844	23.346000	-5.900000
	189.499839	1452.804522	23.320000	-5.800000
	189.601844	1452.803255	23.360000	-5.910000
	189.699850	1452.794380	23.336000	-5.970000
	189.799856	1452.794380	23.336000	-5.970000
	189.899861	1452.796916	23.346000	-5.880000
	189.999867	1452.794380	23.332000	-5.920000
	190.099873	1452.805791	23.350000	-5.810000
	190.199879	1452.805791	23.350000	-5.900000
	190.300884	1452.803255	23.354000	-5.920000
	190.399890	1452.803255	23.354000	-5.900000
	190.499896	1452.801987	23.342000	-5.910000
	190.599902	1452.801987	23.312000	-5.900000
	190.699907	1452.807059	23.352000	-5.860000
	190.799913	1452.807059	23.322000	-5.900000
	190.899919	1452.810862	23.354000	-5.870000
	190.999924	1452.813398	23.350000	-5.880000
	191.099930	1452.817201	23.332000	-5.870000
	191.199936	1452.817201	23.332000	-5.870000
	191.299942	1452.812130	23.360000	-5.940000
	191.399947	1452.809595	23.334000	-5.920000
	191.499953	1452.804523	23.360000	-5.940000
	191.599959	1452.799452	23.338000	-5.940000
	191.699965	1452.807059	23.346000	-5.840000
	191.799970	1452.803256	23.336000	-5.930000
	191.899976	1452.804524	23.316000	-5.890000
	191.999981	1452.808327	23.344000	-5.870000
	192.099988	1452.800721	23.350000	-5.960000
	192.199993	1452.808328	23.350000	-5.840000
	192.300999	1452.809595	23.332000	-5.890000
	192.400004	1452.810863	23.352000	-5.890000
	192.500010	1452.810863	23.352000	-5.890000
	192.600016	1452.805792	23.368000	-5.940000
	192.700022	1452.805792	23.338000	-5.900000
	192.803028	1452.809596	23.350000	-5.870000
	192.900033	1452.821006	23.322000	-5.810000
	193.000039	1452.823542	23.372000	-5.880000
	193.100045	1452.826078	23.316000	-5.880000
	193.200050	1452.829881	23.354000	-5.870000
	193.300056	1452.822274	23.362000	-5.960000
	193.400062	1452.824810	23.322000	-5.880000
	193.500067	1452.822274	23.344000	-5.920000
	193.600073	1452.817203	23.332000	-5.940000
	193.700079	1452.819739	23.334000	-5.880000
	193.800085	1452.819739	23.344000	-5.900000
	193.900090	1452.819739	23.344000	-5.900000
	194.000096	1452.809597	23.352000	-5.980000
	194.100102	1452.812132	23.346000	-5.880000
	194.200108	1452.812132	23.356000	-5.900000
	194.300113	1452.819739	23.324000	-5.840000
	194.400119	1452.817204	23.362000	-5.920000
	194.500124	1452.814668	23.324000	-5.920000
	194.600131	1452.817204	23.352000	-5.880000
	194.700136	1452.814668	23.346000	-5.920000
	194.800142	1452.814668	23.330000	-5.900000
	194.900147	1452.814668	23.334000	-5.900000
	195.003153	1452.808329	23.348000	-5.950000
	195.100159	1452.818472	23.330000	-5.820000
	195.200165	1452.823544	23.352000	-5.860000
	195.300170	1452.827347	23.326000	-5.870000
	195.400176	1452.827347	23.326000	-5.870000
	195.500182	1452.832418	23.332000	-5.860000
	195.600188	1452.824812	23.340000	-5.960000
	195.700193	1452.829883	23.312000	-5.860000
	195.800199	1452.832419	23.340000	-5.880000
	195.900205	1452.826080	23.302000	-5.950000
	196.000210	1452.832419	23.342000	-5.850000
	196.100216	1452.823544	23.350000	-5.970000
	196.200222	1452.826080	23.320000	-5.880000
	196.300228	1452.829884	23.356000	-5.870000
	196.400233	1452.827348	23.324000	-5.920000
	196.500239	1452.824812	23.330000	-5.920000
	196.600245	1452.832420	23.350000	-5.840000
	196.700251	1452.831152	23.342000	-5.910000
	196.800256	1452.834955	23.340000	-5.870000
	196.900262	1452.834955	23.340000	-5.870000
	197.002268	1452.834955	23.338000	-5.900000
	197.100274	1452.833687	23.340000	-5.910000
	197.200279	1452.836223	23.350000	-5.880000
	197.300285	1452.834955	23.322000	-5.910000
	197.400290	1452.837491	23.342000	-5.880000
	197.500296	1452.836223	23.326000	-5.910000
	197.600302	1452.842562	23.332000	-5.850000
	197.699307	1452.843830	23.352000	-5.890000
	197.799313	1452.841295	23.318000	-5.920000
	197.899319	1452.851438	23.330000	-5.820000
	198.003325	1452.847634	23.332000	-5.930000
	198.099330	1452.851438	23.324000	-5.870000
	198.199336	1452.851438	23.324000	-5.870000
	198.299342	1452.852706	23.348000	-5.890000
	198.399348	1452.847634	23.340000	-5.940000
	198.499353	1452.855242	23.330000	-5.840000
	198.599359	1452.852706	23.326000	-5.920000
	198.699365	1452.856510	23.334000	-5.870000
	198.799370	1452.851438	23.346000	-5.940000
	198.899376	1452.860314	23.336000	-5.830000
	198.999382	1452.860314	23.354000	-5.900000
	199.099388	1452.861581	23.312000	-5.890000
	199.199393	1452.861581	23.312000	-5.890000
	199.299399	1452.861581	23.356000	-5.900000
	199.399405	1452.860314	23.360000	-5.910000
	199.499411	1452.853974	23.316000	-5.950000
	199.599416	1452.851439	23.340000	-5.920000
	199.699422	1452.860314	23.330000	-5.830000
	199.802428	1452.859046	23.338000	-5.910000
	199.902433	1452.855243	23.324000	-5.930000
	199.999439	1452.860314	23.330000	-5.860000
	200.099445	1452.856511	23.366000	-5.930000
	200.199450	1452.860314	23.328000	-5.870000
	200.299456	1452.859046	23.326000	-5.910000
	200.399462	1452.866654	23.360000	-5.840000
	200.499468	1452.866654	23.360000	-5.840000
	200.599473	1452.867922	23.318000	-5.890000
	200.699479	1452.875529	23.346000	-5.840000
	200.799485	1452.875529	23.336000	-5.900000
	200.899491	1452.876797	23.304000	-5.890000
	200.999496	1452.878065	23.354000	-5.890000
	201.099502	1452.866654	23.316000	-5.990000
	201.199508	1452.870458	23.348000	-5.870000
	201.299513	1452.874262	23.332000	-5.870000
	201.399519	1452.879333	23.330000	-5.860000
	201.499525	1452.881869	23.344000	-5.880000
	201.599531	1452.885673	23.328000	-5.870000
	201.699536	1452.894548	23.332000	-5.830000
	201.801542	1452.894548	23.332000	-5.830000
	201.899548	1452.893280	23.338000	-5.910000
	201.999554	1452.890744	23.320000	-5.920000
	202.099559	1452.892012	23.332000	-5.890000
	202.199565	1452.890744	23.352000	-5.910000
	202.299571	1452.892012	23.326000	-5.890000
	202.399577	1452.898352	23.320000	-5.850000
	202.499582	1452.888209	23.344000	-5.980000
	202.599588	1452.892013	23.300000	-5.870000
	202.699594	1452.899620	23.338000	-5.840000
	202.799599	1452.898352	23.322000	-5.910000
	202.899605	1452.899620	23.326000	-5.890000
	202.999611	1452.894549	23.312000	-5.940000
	203.099617	1452.889477	23.328000	-5.940000
	203.199622	1452.889477	23.328000	-5.940000
	203.299628	1452.894549	23.324000	-5.860000
	203.399634	1452.892013	23.334000	-5.920000
	203.499640	1452.886942	23.336000	-5.940000
	203.599645	1452.902157	23.294000	-5.780000
	203.700651	1452.900889	23.340000	-5.910000
	203.799656	1452.905961	23.296000	-5.860000
	203.899662	1452.904693	23.314000	-5.910000
	203.999668	1452.909765	23.346000	-5.860000
	204.099674	1452.909765	23.300000	-5.900000
	204.202680	1452.908497	23.328000	-5.910000
	204.299685	1452.899622	23.330000	-5.970000
	204.399691	1452.899622	23.308000	-5.900000
	204.499697	1452.899622	23.308000	-5.900000
	204.600702	1452.897086	23.328000	-5.920000
	204.699708	1452.892015	23.302000	-5.940000
	204.799714	1452.895818	23.320000	-5.870000
	204.899720	1452.897086	23.328000	-5.890000
	204.999725	1452.889479	23.314000	-5.960000
	205.099731	1452.894551	23.304000	-5.860000
	205.199737	1452.902158	23.330000	-5.840000
	205.299742	1452.898355	23.302000	-5.930000
	205.399748	1452.900890	23.298000	-5.880000
	205.499754	1452.904694	23.332000	-5.870000
	205.600760	1452.909766	23.306000	-5.860000
	205.699765	1452.908498	23.342000	-5.910000
	205.799771	1452.908498	23.342000	-5.910000
	205.899777	1452.907230	23.324000	-5.910000
	205.999783	1452.907230	23.324000	-5.900000
	206.099788	1452.907230	23.342000	-5.900000
	206.199794	1452.908498	23.308000	-5.890000
	206.299799	1452.921177	23.328000	-5.800000
	206.399805	1452.916106	23.362000	-5.940000
	206.499811	1452.913570	23.332000	-5.920000
	206.599817	1452.922446	23.310000	-5.830000
	206.699822	1452.924982	23.320000	-5.880000
	206.799828	1452.926249	23.308000	-5.890000
	206.899834	1452.930053	23.328000	-5.870000
	206.999840	1452.924982	23.332000	-5.940000
	207.099845	1452.923714	23.304000	-5.910000
	207.206851	1452.923714	23.324000	-5.900000
	207.299857	1452.923714	23.324000	-5.900000
	207.399862	1452.922446	23.322000	-5.910000
	207.499868	1452.923714	23.314000	-5.890000
	207.599874	1452.927518	23.306000	-5.870000
	207.699880	1452.922446	23.346000	-5.940000
	207.799885	1452.917374	23.306000	-5.940000
	207.899891	1452.921178	23.322000	-5.870000
	207.999897	1452.922446	23.322000	-5.890000
	208.099903	1452.922446	23.298000	-5.900000
	208.199908	1452.921178	23.330000	-5.910000
	208.299914	1452.914839	23.338000	-5.950000
	208.399920	1452.921178	23.300000	-5.850000
	208.499926	1452.918643	23.300000	-5.920000
	208.599931	1452.917375	23.332000	-5.910000
	208.699937	1452.917375	23.332000	-5.910000
	208.801943	1452.923714	23.286000	-5.850000
	208.899948	1452.922447	23.326000	-5.910000
	208.999954	1452.923714	23.290000	-5.890000
	209.099960	1452.930054	23.290000	-5.850000
	209.209966	1452.928786	23.312000	-5.910000
	209.299971	1452.927518	23.314000	-5.910000
	209.401977	1452.924983	23.324000	-5.920000
	209.499983	1452.923715	23.320000	-5.910000
	209.599988	1452.930054	23.306000	-5.850000
	209.699994	1452.930054	23.324000	-5.900000
	209.800000	1452.926251	23.308000	-5.930000
	209.902006	1452.927519	23.298000	-5.890000
	210.000011	1452.932590	23.306000	-5.860000
	210.100017	1452.932590	23.300000	-5.900000
	210.212023	1452.936394	23.298000	-5.870000
	210.300028	1452.936394	23.298000	-5.870000
	210.400034	1452.924983	23.302000	-5.990000
	210.500040	1452.926251	23.292000	-5.890000
	210.600046	1452.928787	23.320000	-5.880000
	210.700051	1452.930055	23.314000	-5.890000
	210.800057	1452.941467	23.310000	-5.810000
	210.900063	1452.932591	23.316000	-5.970000
	211.000068	1452.933859	23.310000	-5.890000
	211.100074	1452.941467	23.336000	-5.840000
	211.200080	1452.936395	23.302000	-5.940000
	211.300086	1452.937663	23.312000	-5.890000
	211.400091	1452.045842	22.370000	-12.920000
	211.500097	1452.208155	23.162000	-4.620000
	211.602103	1452.208155	23.162000	-4.620000
	211.700109	1452.347641	23.188000	-4.800000
	211.800114	1452.452882	23.186000	-5.070000
	211.901120	1452.546712	23.160000	-5.160000
	212.000125	1452.636744	23.174000	-5.190000
	212.100132	1452.698874	23.188000	-5.410000
	212.200137	1452.762275	23.158000	-5.400000
	212.300143	1452.819338	23.190000	-5.450000
	212.400148	1452.856109	23.166000	-5.610000
	212.500154	1452.892882	23.152000	-5.610000
	212.600160	1452.918242	23.178000	-5.700000
	212.700166	1452.943603	23.142000	-5.700000
	212.800171	1452.967696	23.172000	-5.710000
	212.900177	1452.976572	23.168000	-5.830000
	213.000183	1452.994324	23.186000	-5.760000
	213.100189	1452.994324	23.186000	-5.760000
	213.200194	1453.008273	23.172000	-5.790000
	213.300200	1453.017149	23.170000	-5.830000
	213.400206	1453.043779	23.162000	-5.690000
	213.500211	1453.052656	23.158000	-5.830000
	213.600217	1453.058996	23.162000	-5.850000
	213.700223	1453.069141	23.172000	-5.820000
	213.800229	1453.071677	23.162000	-5.880000
	213.900234	1453.075481	23.164000	-5.870000
	214.000240	1453.081821	23.160000	-5.850000
	214.100245	1453.081821	23.152000	-5.900000
	214.200252	1453.083089	23.184000	-5.890000
	214.300257	1453.090698	23.162000	-5.840000
	214.400263	1453.090698	23.162000	-5.840000
	214.500268	1453.088162	23.162000	-5.920000
	214.600274	1453.083090	23.154000	-5.940000
	214.700280	1453.089430	23.168000	-5.850000
	214.800286	1453.084358	23.156000	-5.940000
	214.900291	1453.090698	23.136000	-5.850000
	215.000297	1453.094503	23.190000	-5.870000
	215.100303	1453.094503	23.162000	-5.900000
	215.199308	1453.099575	23.166000	-5.860000
	215.299314	1453.097039	23.164000	-5.920000
	215.399320	1453.102111	23.168000	-5.860000
	215.499326	1453.103379	23.174000	-5.890000
	215.599331	1453.100843	23.156000	-5.920000
	215.699337	1453.104647	23.180000	-5.870000
	215.799343	1453.098307	23.168000	-5.950000
	215.899349	1453.098307	23.168000	-5.950000
	215.999354	1453.098307	23.178000	-5.900000
	216.102360	1453.110988	23.194000	-5.800000
	216.199366	1453.114793	23.156000	-5.870000
	216.299372	1453.117329	23.196000	-5.880000
	216.399377	1453.112257	23.156000	-5.940000
	216.499383	1453.113525	23.184000	-5.890000
	216.599389	1453.114793	23.174000	-5.890000
	216.699394	1453.118597	23.156000	-5.870000
	216.802400	1453.117329	23.168000	-5.910000
	216.899406	1453.113525	23.136000	-5.930000
	216.999412	1453.117329	23.172000	-5.870000
	217.099417	1453.117329	23.148000	-5.900000
	217.199423	1453.117329	23.148000	-5.900000
	217.299428	1453.119865	23.140000	-5.880000
	217.399435	1453.113525	23.152000	-5.950000
	217.499440	1453.116061	23.160000	-5.880000
	217.599446	1453.119865	23.142000	-5.870000
	217.699451	1453.116061	23.156000	-5.930000
	217.799457	1453.121134	23.176000	-5.860000
	217.899463	1453.121134	23.176000	-5.900000
	217.999469	1453.122402	23.154000	-5.890000
	218.099474	1453.121134	23.182000	-5.910000
	218.199480	1453.116061	23.160000	-5.940000
	218.299486	1453.119866	23.140000	-5.870000
	218.399492	1453.121134	23.182000	-5.890000
	218.499497	1453.117330	23.168000	-5.930000
	218.599503	1453.127475	23.178000	-5.820000
	218.699509	1453.126207	23.160000	-5.910000
	218.799514	1453.126207	23.160000	-5.910000
	218.899520	1453.132547	23.132000	-5.850000
	218.999526	1453.140156	23.176000	-5.840000
	219.099532	1453.146497	23.144000	-5.850000
	219.199537	1453.145228	23.152000	-5.910000
	219.299543	1453.137620	23.142000	-5.960000
	219.399549	1453.138888	23.160000	-5.890000
	219.499555	1453.135084	23.160000	-5.930000
	219.599560	1453.135084	23.146000	-5.900000
	219.699566	1453.136352	23.182000	-5.890000
	219.799572	1453.130012	23.148000	-5.950000
	219.899578	1453.128743	23.144000	-5.910000
	219.999583	1453.126207	23.140000	-5.920000
	220.099589	1453.131280	23.162000	-5.860000
	220.199594	1453.131280	23.162000	-5.860000
	220.299600	1453.137620	23.152000	-5.850000
	220.399606	1453.130012	23.168000	-5.960000
	220.499612	1453.133816	23.136000	-5.870000
	220.599617	1453.132548	23.176000	-5.910000
	220.699623	1453.133816	23.148000	-5.890000
	220.799629	1453.133816	23.172000	-5.900000
	220.899635	1453.131280	23.144000	-5.920000
	220.999640	1453.140157	23.162000	-5.830000
	221.099646	1453.132549	23.166000	-5.960000
	221.199652	1453.140157	23.146000	-5.840000
	221.299657	1453.136353	23.172000	-5.930000
	221.399663	1453.137621	23.144000	-5.890000
	221.499669	1453.145230	23.184000	-5.840000
	221.601675	1453.146498	23.168000	-5.890000
	221.699680	1453.146498	23.168000	-5.890000
	221.799686	1453.146498	23.158000	-5.900000
	221.899692	1453.154107	23.160000	-5.840000
	221.999698	1453.150303	23.178000	-5.930000
	222.099703	1453.154107	23.172000	-5.870000
	222.199709	1453.149035	23.148000	-5.940000
	222.299715	1453.150303	23.152000	-5.890000
	222.400721	1453.149035	23.194000	-5.910000
	222.499726	1453.149035	23.170000	-5.900000
	222.599732	1453.142694	23.152000	-5.950000
	222.699738	1453.142694	23.152000	-5.950000
	222.799743	1453.143963	23.152000	-5.890000
	222.899749	1453.146499	23.144000	-5.880000
	222.999755	1453.145231	23.134000	-5.910000
	223.099761	1453.155376	23.166000	-5.820000
	223.199766	1453.152840	23.142000	-5.920000
	223.299772	1453.160449	23.170000	-5.840000
	223.399777	1453.157912	23.156000	-5.920000
	223.499784	1453.151572	23.130000	-5.950000
	223.599789	1453.152840	23.156000	-5.890000
	223.699795	1453.149036	23.150000	-5.930000
	223.799800	1453.152840	23.160000	-5.870000
	223.899806	1453.154108	23.148000	-5.890000
	223.999812	1453.151572	23.150000	-5.920000
	224.099818	1453.159181	23.146000	-5.840000
	224.199823	1453.159181	23.146000	-5.840000
	224.299829	1453.155377	23.144000	-5.930000
	224.399835	1453.156645	23.142000	-5.890000
	224.499841	1453.156645	23.168000	-5.900000
	224.599846	1453.152840	23.110000	-5.930000
	224.699852	1453.159181	23.140000	-5.850000
	224.799858	1453.156645	23.160000	-5.920000
	224.899863	1453.160449	23.128000	-5.870000
	224.999869	1453.154109	23.176000	-5.950000
	225.099875	1453.147768	23.148000	-5.950000
	225.199881	1453.150305	23.152000	-5.880000
	225.299886	1453.142696	23.152000	-5.960000
	225.399892	1453.151573	23.174000	-5.830000
	225.499897	1453.151573	23.174000	-5.830000
	225.599904	1453.150305	23.162000	-5.910000
	225.699909	1453.151573	23.152000	-5.890000
	225.799915	1453.154109	23.136000	-5.880000
	225.899920	1453.147769	23.132000	-5.950000
	225.999926	1453.156646	23.146000	-5.830000
	226.099932	1453.152842	23.156000	-5.930000
	226.199938	1453.159182	23.122000	-5.850000
	226.299943	1453.156646	23.146000	-5.920000
	226.399949	1453.155378	23.118000	-5.910000
	226.499955	1453.165523	23.160000	-5.820000
	226.599961	1453.164255	23.144000	-5.910000
	226.699966	1453.165523	23.158000	-5.890000
	226.799972	1453.164255	23.152000	-5.910000
	226.899978	1453.166792	23.136000	-5.880000
	226.999983	1453.175669	23.158000	-5.830000
	227.099989	1453.175669	23.158000	-5.830000
	227.199995	1453.173132	23.136000	-5.920000
	227.300001	1453.176937	23.128000	-5.870000
	227.400006	1453.174401	23.160000	-5.920000
	227.500012	1453.170596	23.132000	-5.930000
	227.600018	1453.176937	23.146000	-5.850000
	227.700024	1453.171865	23.120000	-5.940000
	227.800029	1453.187083	23.140000	-5.780000
	227.900035	1453.182011	23.182000	-5.940000
	228.000041	1453.178206	23.142000	-5.930000
	228.100047	1453.179474	23.148000	-5.890000
	228.200052	1453.180742	23.150000	-5.890000
	228.300058	1453.183279	23.146000	-5.880000
	228.400064	1453.183279	23.146000	-5.880000
	228.500069	1453.180743	23.130000	-5.920000
	228.600075	1453.184547	23.154000	-5.870000
	228.700081	1453.182011	23.160000	-5.920000
	228.800086	1453.192156	23.136000	-5.820000
	228.900092	1453.184547	23.154000	-5.960000
	229.000098	1453.183279	23.136000	-5.910000
	229.100103	1453.183279	23.150000	-5.900000
	229.200109	1453.178207	23.154000	-5.940000
	229.300115	1453.180743	23.144000	-5.880000
	229.400121	1453.178207	23.162000	-5.920000
	229.500126	1453.180743	23.168000	-5.880000
	229.600132	1453.182011	23.162000	-5.890000
	229.700138	1453.179475	23.134000	-5.920000
	229.800144	1453.179475	23.134000	-5.920000
	229.900149	1453.178207	23.146000	-5.910000
	230.000155	1453.175671	23.146000	-5.920000
	230.100161	1453.179475	23.128000	-5.870000
	230.200167	1453.173135	23.160000	-5.950000
	230.300172	1453.168062	23.158000	-5.940000
	230.400178	1453.171867	23.130000	-5.870000
	230.500184	1453.170598	23.142000	-5.910000
	230.600189	1453.179476	23.132000	-5.830000
	230.700195	1453.178208	23.144000	-5.910000
	230.800201	1453.170599	23.124000	-5.960000
	230.900207	1453.176940	23.142000	-5.850000
	231.000212	1453.168063	23.132000	-5.970000
	231.100218	1453.170599	23.140000	-5.880000
	231.200224	1453.171867	23.156000	-5.890000
	231.300230	1453.171867	23.156000	-5.890000
	231.400235	1453.170599	23.148000	-5.910000
	231.500241	1453.176940	23.132000	-5.850000
	231.600246	1453.180745	23.144000	-5.870000
	231.700253	1453.176940	23.146000	-5.930000
	231.800258	1453.174404	23.148000	-5.920000
	231.900264	1453.170600	23.136000	-5.930000
	232.000269	1453.174404	23.146000	-5.870000
	232.100275	1453.175672	23.158000	-5.890000
	232.200281	1453.168064	23.136000	-5.960000
	232.300287	1453.171868	23.142000	-5.870000
	232.400292	1453.173136	23.148000	-5.890000
	232.500298	1453.176941	23.146000	-5.870000
	232.600304	1453.185818	23.160000	-5.830000
	232.699309	1453.182013	23.156000	-5.930000
	232.799315	1453.185818	23.130000	-5.870000
	232.899321	1453.185818	23.130000	-5.870000
	232.999327	1453.183282	23.154000	-5.920000
	233.099332	1453.178209	23.138000	-5.940000
	233.199338	1453.183282	23.126000	-5.860000
	233.299344	1453.183282	23.140000	-5.900000
	233.399350	1453.184550	23.152000	-5.890000
	233.499355	1453.184550	23.146000	-5.900000
	233.599361	1453.180746	23.154000	-5.930000
	233.699367	1453.180746	23.134000	-5.900000
	233.799372	1453.190891	23.148000	-5.820000
	233.899378	1453.189623	23.160000	-5.910000
	233.999384	1453.190891	23.150000	-5.890000
	234.099390	1453.198500	23.146000	-5.840000
	234.199395	1453.193428	23.148000	-5.940000
	234.299401	1453.193428	23.148000	-5.940000
	234.399407	1453.199768	23.132000	-5.850000
	234.499413	1453.199768	23.150000	-5.900000
	234.599418	1453.194696	23.144000	-5.940000
	234.699424	1453.197232	23.136000	-5.880000
	234.799429	1453.201037	23.164000	-5.870000
	234.899436	1453.201037	23.134000	-5.900000
	234.999441	1453.197232	23.148000	-5.930000
	235.099447	1453.195964	23.136000	-5.910000
	235.199452	1453.198501	23.154000	-5.880000
	235.299458	1453.199769	23.156000	-5.890000
	235.399464	1453.202305	23.130000	-5.880000
	235.499470	1453.213719	23.158000	-5.810000
	235.599475	1453.214987	23.156000	-5.890000
	235.699481	1453.212451	23.116000	-5.920000
	235.799487	1453.212451	23.116000	-5.920000
	235.899492	1453.218792	23.124000	-5.850000
	235.999498	1453.218792	23.152000	-5.900000
	236.099504	1453.213719	23.130000	-5.940000
	236.199510	1453.220060	23.148000	-5.850000
	236.299515	1453.218792	23.146000	-5.910000
	236.399521	1453.216256	23.110000	-5.920000
	236.499527	1453.216256	23.136000	-5.900000
	236.599533	1453.213719	23.128000	-5.920000
	236.699538	1453.220060	23.138000	-5.850000
	236.799544	1453.217524	23.138000	-5.920000
	236.899549	1453.206111	23.136000	-5.990000
	236.999556	1453.212452	23.160000	-5.850000
	237.099561	1453.209916	23.124000	-5.920000
	237.199567	1453.204843	23.142000	-5.940000
	237.299572	1453.207379	23.138000	-5.880000
	237.399578	1453.207379	23.138000	-5.880000
	237.499584	1453.208647	23.144000	-5.890000
	237.599590	1453.214988	23.124000	-5.850000
	237.699595	1453.218793	23.134000	-5.870000
	237.799601	1453.217525	23.136000	-5.910000
	237.899607	1453.217525	23.112000	-5.900000
	237.999613	1453.222598	23.148000	-5.860000
	238.099618	1453.225134	23.136000	-5.880000
	238.199624	1453.222598	23.138000	-5.920000
	238.299630	1453.214989	23.148000	-5.960000
	238.399635	1453.214989	23.122000	-5.900000
	238.499641	1453.222598	23.146000	-5.840000
	238.599647	1453.214989	23.162000	-5.960000
	238.699653	1453.214989	23.162000	-5.960000
	238.799658	1453.216257	23.124000	-5.890000
	238.899664	1453.221330	23.154000	-5.860000
	238.999670	1453.213721	23.108000	-5.960000
	239.099676	1453.221330	23.122000	-5.840000
	239.199681	1453.218794	23.156000	-5.920000
	239.299687	1453.222599	23.112000	-5.870000
	239.399693	1453.223867	23.156000	-5.890000
	239.499699	1453.218794	23.166000	-5.940000
	239.599704	1453.221331	23.114000	-5.880000
	239.699710	1453.228940	23.136000	-5.840000
	239.799716	1453.222599	23.140000	-5.950000
	239.899721	1453.220063	23.138000	-5.920000
	239.999727	1453.225136	23.150000	-5.860000
	240.099733	1453.225136	23.150000	-5.860000
	240.199739	1453.216259	23.124000	-5.970000
	240.299744	1453.225136	23.144000	-5.830000
	240.399750	1453.225136	23.120000	-5.900000
	240.499756	1453.220063	23.120000	-5.940000
	240.599761	1453.223868	23.150000	-5.870000
	240.699767	1453.220063	23.146000	-5.930000
	240.799773	1453.222600	23.126000	-5.880000
	240.899778	1453.222600	23.138000	-5.900000
	240.999784	1453.222600	23.128000	-5.900000
	241.099790	1453.231477	23.126000	-5.830000
	241.199796	1453.221332	23.152000	-5.980000
	241.299801	1453.221332	23.110000	-5.900000
	241.399807	1453.221332	23.110000	-5.900000
	241.499813	1453.225137	23.158000	-5.870000
	241.599819	1453.222600	23.124000	-5.920000
	241.699824	1453.228941	23.102000	-5.850000
	241.799830	1453.222601	23.146000	-5.950000
	241.899836	1453.216260	23.124000	-5.950000
	241.999842	1453.218796	23.136000	-5.880000
	242.099847	1453.226406	23.130000	-5.840000
	242.199853	1453.221333	23.126000	-5.940000
	242.299859	1453.226406	23.124000	-5.860000
	242.399864	1453.232747	23.154000	-5.850000
	242.499870	1453.226406	23.114000	-5.950000
	242.599876	1453.234015	23.142000	-5.840000
	242.699882	1453.234015	23.142000	-5.900000
	242.799887	1453.231479	23.126000	-5.920000
	242.899893	1453.235284	23.102000	-5.870000
	242.999899	1453.235284	23.102000	-5.870000
	243.099905	1453.235284	23.132000	-5.900000
	243.199910	1453.230211	23.118000	-5.940000
	243.299916	1453.239088	23.138000	-5.830000
	243.399921	1453.235284	23.136000	-5.930000
	243.499928	1453.242893	23.104000	-5.840000
	243.599933	1453.250503	23.146000	-5.840000
	243.699939	1453.246698	23.126000	-5.930000
	243.799944	1453.251771	23.116000	-5.860000
	243.899950	1453.254307	23.126000	-5.880000
	243.999956	1453.254307	23.112000	-5.900000
	244.099962	1453.254307	23.134000	-5.900000
	244.199967	1453.247966	23.132000	-5.950000
	244.299973	1453.242894	23.124000	-5.940000
	244.399979	1453.245430	23.128000	-5.880000
	244.499984	1453.240357	23.140000	-5.940000
	244.599990	1453.240357	23.140000	-5.940000
	244.699996	1453.241626	23.090000	-5.890000
	244.800002	1453.245430	23.146000	-5.870000
	244.900007	1453.236553	23.140000	-5.970000
	245.000013	1453.236553	23.114000	-5.900000
	245.100019	1453.236553	23.150000	-5.900000
	245.200025	1453.231481	23.128000	-5.940000
	245.300030	1453.239090	23.112000	-5.840000
	245.400036	1453.232749	23.118000	-5.950000
	245.500041	1453.239090	23.136000	-5.850000
	245.600048	1453.244163	23.140000	-5.860000
	245.700053	1453.244163	23.134000	-5.900000
	245.800059	1453.244163	23.132000	-5.900000
	245.900064	1453.246699	23.142000	-5.880000
	246.000070	1453.247968	23.104000	-5.890000
	246.100076	1453.247968	23.104000	-5.890000
	246.200082	1453.253040	23.122000	-5.860000
	246.300087	1453.256845	23.140000	-5.870000
	246.400093	1453.251772	23.126000	-5.940000
	246.500099	1453.258113	23.130000	-5.850000
	246.600105	1453.251773	23.136000	-5.950000
	246.700110	1453.251773	23.112000	-5.900000
	246.800116	1453.254309	23.142000	-5.880000
	246.900122	1453.251773	23.124000	-5.920000
	247.000127	1453.258114	23.124000	-5.850000
	247.100133	1453.254309	23.112000	-5.930000
	247.200139	1453.256846	23.128000	-5.880000
	247.300145	1453.259382	23.142000	-5.880000
	247.400150	1453.254309	23.136000	-5.940000
	247.500156	1453.256846	23.136000	-5.880000
	247.600162	1453.256846	23.136000	-5.880000
	247.700168	1453.261919	23.122000	-5.860000
	247.800173	1453.258114	23.110000	-5.930000
	247.900179	1453.264455	23.152000	-5.850000
	248.000185	1453.263187	23.124000	-5.910000
	248.100190	1453.266992	23.130000	-5.870000
	248.200196	1453.268260	23.134000	-5.890000
	248.300202	1453.265724	23.120000	-5.920000
	248.400208	1453.275870	23.128000	-5.820000
	248.500213	1453.264456	23.126000	-5.990000
	248.600219	1453.264456	23.098000	-5.900000
	248.700225	1453.263188	23.136000	-5.910000
	248.800231	1453.264456	23.124000	-5.890000
	248.900236	1453.264456	23.124000	-5.890000
	249.000242	1453.259383	23.124000	-5.940000
	249.100247	1453.258115	23.130000	-5.910000
	249.200253	1453.263188	23.110000	-5.860000
	249.300259	1453.266993	23.138000	-5.870000
	249.400265	1453.258115	23.102000	-5.970000
	249.500270	1453.268261	23.122000	-5.820000
	249.600276	1453.269530	23.130000	-5.890000
	249.700282	1453.275871	23.102000	-5.850000
	249.800288	1453.282212	23.132000	-5.850000
	249.900293	1453.275871	23.130000	-5.950000
	250.000299	1453.284749	23.116000	-5.830000
	250.100305	1453.278408	23.144000	-5.950000
	250.199310	1453.282213	23.118000	-5.870000
	250.299316	1453.282213	23.118000	-5.870000
	250.399322	1453.279676	23.148000	-5.920000
	250.499328	1453.270799	23.106000	-5.970000
	250.599333	1453.277140	23.104000	-5.850000
	250.699339	1453.277140	23.130000	-5.900000
	250.799345	1453.274604	23.128000	-5.920000
	250.899351	1453.275872	23.122000	-5.890000
	250.999356	1453.274604	23.114000	-5.910000
	251.099362	1453.274604	23.100000	-5.900000
	251.199368	1453.278408	23.132000	-5.870000
	251.299374	1453.272068	23.102000	-5.950000
	251.399379	1453.275872	23.120000	-5.870000
	251.499385	1453.273336	23.124000	-5.920000
	251.599391	1453.272068	23.094000	-5.910000
	251.699396	1453.272068	23.094000	-5.910000
	251.799402	1453.266995	23.134000	-5.940000
	251.899408	1453.264458	23.104000	-5.920000
	251.999413	1453.269531	23.122000	-5.860000
	252.099419	1453.259386	23.112000	-5.980000
	252.199425	1453.265727	23.114000	-5.850000
	252.299430	1453.265727	23.158000	-5.900000
	252.399436	1453.264459	23.108000	-5.910000
	252.499442	1453.275873	23.134000	-5.810000
	252.599448	1453.273337	23.124000	-5.920000
	252.699453	1453.273337	23.120000	-5.900000
	252.799459	1453.275873	23.122000	-5.880000
	252.899465	1453.269532	23.114000	-5.950000
	252.999471	1453.274605	23.156000	-5.860000
	253.099476	1453.269533	23.138000	-5.940000
	253.199482	1453.269533	23.138000	-5.940000
	253.299488	1453.264460	23.124000	-5.940000
	253.399494	1453.272069	23.132000	-5.840000
	253.499499	1453.279679	23.118000	-5.840000
	253.599505	1453.282215	23.122000	-5.880000
	253.699511	1453.278411	23.136000	-5.930000
	253.799516	1453.273338	23.124000	-5.940000
	253.899522	1453.283484	23.120000	-5.820000
	253.999528	1453.282216	23.160000	-5.910000
	254.099534	1453.283484	23.110000	-5.890000
	254.199539	1453.286020	23.140000	-5.880000
	254.299545	1453.280948	23.108000	-5.940000
	254.399551	1453.291094	23.108000	-5.820000
	254.499557	1453.289825	23.142000	-5.910000
	254.599562	1453.286021	23.106000	-5.930000
	254.699568	1453.289826	23.126000	-5.870000
	254.799573	1453.289826	23.126000	-5.870000
	254.899580	1453.282216	23.144000	-5.960000
	254.999585	1453.279680	23.092000	-5.920000
	255.099591	1453.282216	23.114000	-5.880000
	255.199596	1453.275875	23.120000	-5.950000
	255.299602	1453.283485	23.108000	-5.840000
	255.399608	1453.279680	23.126000	-5.930000
	255.499614	1453.277144	23.088000	-5.920000
	255.599619	1453.277144	23.146000	-5.900000
	255.699625	1453.273339	23.114000	-5.930000
	255.799631	1453.280949	23.124000	-5.840000
	255.899636	1453.280949	23.124000	-5.900000
	255.999642	1453.280949	23.124000	-5.900000
	256.099648	1453.278412	23.106000	-5.920000
	256.199654	1453.277144	23.124000	-5.910000
	256.299659	1453.274608	23.128000	-5.920000
	256.399665	1453.280949	23.092000	-5.850000
	256.499671	1453.282217	23.124000	-5.890000
	256.599677	1453.280949	23.104000	-5.910000
	256.699682	1453.288558	23.122000	-5.840000
	256.799688	1453.272072	23.122000	-6.030000
	256.899693	1453.283487	23.096000	-5.810000
	256.999700	1453.292365	23.130000	-5.830000
	257.099705	1453.289828	23.098000	-5.920000
	257.199711	1453.294901	23.118000	-5.860000
	257.299716	1453.291097	23.128000	-5.930000
	257.399722	1453.286024	23.112000	-5.940000
	257.499728	1453.294902	23.138000	-5.830000
	257.599734	1453.293633	23.114000	-5.910000
	257.699739	1453.293633	23.114000	-5.910000
	257.799745	1453.299975	23.100000	-5.850000
	257.899751	1453.299975	23.116000	-5.900000
	257.999757	1453.294902	23.116000	-5.940000
	258.099762	1453.287293	23.106000	-5.960000
	258.199768	1453.289829	23.126000	-5.880000
	258.299774	1453.291097	23.108000	-5.890000
	258.399779	1453.296170	23.088000	-5.860000
	258.499785	1453.296170	23.140000	-5.900000
	258.599791	1453.297439	23.090000	-5.890000
	258.699797	1453.301243	23.122000	-5.870000
	258.799802	1453.291098	23.146000	-5.980000
	258.899808	1453.296171	23.100000	-5.860000
	258.999814	1453.307585	23.112000	-5.810000
	259.099820	1453.305049	23.112000	-5.920000
	259.199825	1453.305049	23.102000	-5.900000
	259.299831	1453.305049	23.102000	-5.900000
	259.399837	1453.307585	23.134000	-5.880000
	259.499842	1453.303781	23.118000	-5.930000
	259.599848	1453.308854	23.120000	-5.860000
	259.699854	1453.310122	23.126000	-5.890000
	259.799860	1453.308854	23.098000	-5.910000
	259.899865	1453.315195	23.126000	-5.850000
	259.999871	1453.307586	23.128000	-5.960000
	260.099877	1453.311391	23.070000	-5.870000
	260.199883	1453.316464	23.106000	-5.860000
	260.299888	1453.311391	23.138000	-5.940000
	260.399894	1453.320269	23.104000	-5.830000
	260.499899	1453.321537	23.130000	-5.890000
	260.599905	1453.313928	23.112000	-5.960000
	260.699911	1453.313928	23.112000	-5.960000
	260.799917	1453.312660	23.086000	-5.910000
	260.899922	1453.315196	23.134000	-5.880000
	260.999928	1453.317733	23.108000	-5.880000
	261.099934	1453.316464	23.084000	-5.910000
	261.199940	1453.315196	23.144000	-5.910000
	261.299945	1453.319001	23.122000	-5.870000
	261.399951	1453.322806	23.100000	-5.870000
	261.499957	1453.319001	23.126000	-5.930000
	261.599963	1453.317733	23.094000	-5.910000
	261.699968	1453.324074	23.120000	-5.850000
	261.799974	1453.325342	23.126000	-5.890000
	261.899980	1453.322806	23.108000	-5.920000
	261.999985	1453.330416	23.124000	-5.840000
	262.099991	1453.330416	23.124000	-5.840000
	262.199997	1453.326611	23.140000	-5.930000
	262.300003	1453.327879	23.110000	-5.890000
	262.400008	1453.336757	23.092000	-5.830000
	262.500014	1453.325343	23.148000	-5.990000
	262.600020	1453.320270	23.100000	-5.940000
	262.700026	1453.320270	23.088000	-5.900000
	262.800031	1453.321539	23.126000	-5.890000
	262.900037	1453.324075	23.094000	-5.880000
	263.000042	1453.324075	23.132000	-5.900000
	263.100048	1453.319002	23.128000	-5.940000
	263.200054	1453.329149	23.114000	-5.820000
	263.300060	1453.329149	23.120000	-5.900000
	263.400065	1453.329149	23.120000	-5.900000
	263.500071	1453.330417	23.122000	-5.890000
	263.600077	1453.338027	23.098000	-5.840000
	263.700083	1453.341832	23.120000	-5.870000
	263.800088	1453.330418	23.114000	-5.990000
	263.900094	1453.330418	23.100000	-5.900000
	264.000100	1453.334222	23.128000	-5.870000
	264.100105	1453.334222	23.124000	-5.900000
	264.200111	1453.338027	23.106000	-5.870000
	264.300117	1453.339296	23.128000	-5.890000
	264.400123	1453.338027	23.136000	-5.910000
	264.500128	1453.341832	23.118000	-5.870000
	264.600134	1453.340564	23.112000	-5.910000
	264.700140	1453.341832	23.104000	-5.890000
	264.800146	1453.341832	23.104000	-5.890000
	264.900151	1453.345637	23.104000	-5.870000
	265.000157	1453.354515	23.126000	-5.830000
	265.100163	1453.351979	23.100000	-5.920000
	265.200169	1453.348174	23.088000	-5.930000
	265.300174	1453.346906	23.098000	-5.910000
	265.400180	1453.344369	23.130000	-5.920000
	265.500185	1453.346906	23.116000	-5.880000
	265.600191	1453.354516	23.106000	-5.840000
	265.700197	1453.351979	23.108000	-5.920000
	265.800203	1453.344370	23.086000	-5.960000
	265.900208	1453.345638	23.074000	-5.890000
	266.000214	1453.346906	23.132000	-5.890000
	266.100220	1453.346906	23.094000	-5.900000
	266.200226	1453.354516	23.096000	-5.840000
	266.300231	1453.354516	23.096000	-5.840000
	266.400237	1453.355784	23.112000	-5.890000
	266.500243	1453.351979	23.092000	-5.930000
	266.600248	1453.351979	23.082000	-5.900000
	266.700254	1453.358321	23.102000	-5.850000
	266.800260	1453.355785	23.132000	-5.920000
	266.900266	1453.364663	23.102000	-5.830000
	267.000271	1453.365931	23.126000	-5.890000
	267.100277	1453.359590	23.106000	-5.950000
	267.200283	1453.359590	23.080000	-5.900000
	267.300289	1453.363395	23.100000	-5.870000
	267.400294	1453.353249	23.090000	-5.980000
	267.500300	1453.353249	23.090000	-5.980000
	267.600306	1453.359590	23.088000	-5.850000
	267.699311	1453.363395	23.112000	-5.870000
	267.799317	1453.362127	23.112000	-5.910000
	267.899323	1453.355786	23.104000	-5.950000
	267.999329	1453.364664	23.080000	-5.830000
	268.099334	1453.364664	23.100000	-5.900000
	268.199340	1453.358323	23.098000	-5.950000
	268.299345	1453.367201	23.100000	-5.830000
	268.399352	1453.371006	23.122000	-5.870000
	268.499357	1453.374811	23.098000	-5.870000
	268.599363	1453.376079	23.080000	-5.890000
	268.699368	1453.377347	23.108000	-5.890000
	268.799374	1453.369738	23.108000	-5.960000
	268.899380	1453.369738	23.108000	-5.960000
	268.999386	1453.365933	23.104000	-5.930000
	269.099391	1453.369738	23.106000	-5.870000
	269.199397	1453.371006	23.130000	-5.890000
	269.299403	1453.367201	23.102000	-5.930000
	269.399409	1453.369738	23.086000	-5.880000
	269.499414	1453.373543	23.104000	-5.870000
	269.599420	1453.365933	23.106000	-5.960000
	269.699426	1453.358324	23.098000	-5.960000
	269.799431	1453.364665	23.096000	-5.850000
	269.899437	1453.365934	23.110000	-5.890000
	269.999443	1453.364665	23.102000	-5.910000
	270.099449	1453.365934	23.100000	-5.890000
	270.199454	1453.365934	23.122000	-5.900000
	270.299460	1453.369738	23.114000	-5.870000
	270.399466	1453.369738	23.114000	-5.870000
	270.499472	1453.371007	23.084000	-5.890000
	270.599477	1453.369738	23.126000	-5.910000
	270.699483	1453.367202	23.114000	-5.920000
	270.799489	1453.368470	23.088000	-5.890000
	270.899494	1453.372275	23.092000	-5.870000
	270.999500	1453.379885	23.110000	-5.840000
	271.099506	1453.373544	23.100000	-5.950000
	271.199512	1453.371007	23.094000	-5.920000
	271.299517	1453.378617	23.124000	-5.840000
	271.399523	1453.382422	23.112000	-5.870000
	271.499529	1453.382422	23.080000	-5.900000
	271.599535	1453.390032	23.084000	-5.840000
	271.699540	1453.390032	23.088000	-5.900000
	271.799546	1453.381154	23.086000	-5.970000
	271.899551	1453.384959	23.072000	-5.870000
	271.999557	1453.384959	23.072000	-5.870000
	272.099563	1453.397643	23.118000	-5.800000
	272.199569	1453.396375	23.110000	-5.910000
	272.299574	1453.391301	23.062000	-5.940000
	272.399580	1453.390033	23.094000	-5.910000
	272.499586	1453.391302	23.106000	-5.890000
	272.599592	1453.390033	23.098000	-5.910000
	272.699597	1453.391302	23.076000	-5.890000
	272.799603	1453.400180	23.082000	-5.830000
	272.899609	1453.398912	23.130000	-5.910000
	272.999615	1453.390034	23.084000	-5.970000
	273.099620	1453.392570	23.102000	-5.880000
	273.199626	1453.393839	23.104000	-5.890000
	273.299632	1453.391302	23.098000	-5.920000
	273.399637	1453.390034	23.110000	-5.910000
	273.499643	1453.390034	23.110000	-5.910000
	273.599649	1453.388765	23.104000	-5.910000
	273.699655	1453.401449	23.108000	-5.800000
	273.799660	1453.402718	23.116000	-5.890000
	273.899666	1453.388767	23.116000	-6.010000
	273.999672	1453.392572	23.062000	-5.870000
	274.099678	1453.398913	23.094000	-5.850000
	274.199683	1453.395108	23.108000	-5.930000
	274.299689	1453.392572	23.074000	-5.920000
	274.399694	1453.396377	23.080000	-5.870000
	274.499700	1453.395108	23.118000	-5.910000
	274.599706	1453.395108	23.094000	-5.900000
	274.699712	1453.391303	23.080000	-5.930000
	274.799717	1453.398914	23.078000	-5.840000
	274.899723	1453.405255	23.112000	-5.850000
	274.999729	1453.405255	23.112000	-5.850000
	275.099735	1453.398914	23.120000	-5.950000
	275.199740	1453.384963	23.070000	-6.010000
	275.299746	1453.393841	23.084000	-5.830000
	275.399752	1453.397646	23.102000	-5.870000
	275.499757	1453.395110	23.102000	-5.920000
	275.599763	1453.398915	23.100000	-5.870000
	275.699769	1453.409062	23.060000	-5.820000
	275.799775	1453.405257	23.124000	-5.930000
	275.899780	1453.395111	23.118000	-5.980000
	275.999786	1453.400184	23.084000	-5.860000
	276.099792	1453.405257	23.088000	-5.860000
	276.199798	1453.410331	23.126000	-5.860000
	276.299803	1453.401453	23.082000	-5.970000
	276.399809	1453.401453	23.082000	-5.970000
	276.499815	1453.406526	23.068000	-5.860000
	276.599821	1453.412868	23.068000	-5.850000
	276.699826	1453.416673	23.114000	-5.870000
	276.799832	1453.410331	23.094000	-5.950000
	276.899837	1453.407795	23.058000	-5.920000
	276.999843	1453.415405	23.082000	-5.840000
	277.099849	1453.417942	23.102000	-5.880000
	277.199855	1453.409063	23.114000	-5.970000
	277.299860	1453.403990	23.066000	-5.940000
	277.399866	1453.412869	23.078000	-5.830000
	277.499872	1453.414137	23.116000	-5.890000
	277.599878	1453.402723	23.104000	-5.990000
	277.699883	1453.527085	22.718000	-4.920000
	277.799889	1453.482695	23.246000	-6.250000
	277.899895	1453.482695	23.246000	-6.250000
	277.999900	1453.442112	23.286000	-6.220000
	278.099906	1453.402797	23.272000	-6.210000
	278.199912	1453.374896	23.260000	-6.120000
	278.299918	1453.355873	23.244000	-6.050000
	278.399923	1453.330509	23.266000	-6.100000
	278.499929	1453.319095	23.270000	-5.990000
	278.599935	1453.305145	23.246000	-6.010000
	278.699941	1453.300072	23.268000	-5.940000
	278.799946	1453.288658	23.280000	-5.990000
	278.899952	1453.277245	23.266000	-5.990000
	278.999958	1453.278513	23.242000	-5.890000
	279.099964	1453.278513	23.242000	-5.890000
	279.199969	1453.272172	23.286000	-5.950000
	279.299975	1453.262027	23.260000	-5.980000
	279.399981	1453.250613	23.252000	-5.990000
	279.499986	1453.250613	23.246000	-5.900000
	279.599992	1453.253149	23.270000	-5.880000
	279.699998	1453.256954	23.280000	-5.870000
	279.800004	1453.258222	23.276000	-5.890000
	279.900009	1453.251881	23.244000	-5.950000
	280.000015	1453.255686	23.250000	-5.870000
	280.100021	1453.256954	23.252000	-5.890000
	280.200027	1453.248077	23.260000	-5.970000
	280.300032	1453.246809	23.266000	-5.910000
	280.400038	1453.251882	23.270000	-5.860000
	280.500043	1453.253150	23.272000	-5.890000
	280.600049	1453.246809	23.258000	-5.950000
	280.700055	1453.246809	23.258000	-5.950000
	280.800061	1453.244273	23.252000	-5.920000
	280.900066	1453.246809	23.262000	-5.880000
	281.000072	1453.251882	23.272000	-5.860000
	281.100078	1453.246809	23.274000	-5.940000
	281.200084	1453.244273	23.264000	-5.920000
	281.300089	1453.249346	23.266000	-5.860000
	281.400095	1453.250614	23.278000	-5.890000
	281.500101	1453.248078	23.258000	-5.920000
	281.600107	1453.249346	23.256000	-5.890000
	281.700112	1453.258224	23.236000	-5.830000
	281.800118	1453.262028	23.250000	-5.870000
	281.900124	1453.259492	23.290000	-5.920000
	282.000129	1453.256955	23.262000	-5.920000
	282.100135	1453.260760	23.244000	-5.870000
	282.200141	1453.260760	23.244000	-5.870000
	282.300147	1453.264565	23.254000	-5.870000
	282.400152	1453.272174	23.280000	-5.840000
	282.500158	1453.262029	23.266000	-5.980000
	282.600164	1453.262029	23.260000	-5.900000
	282.700170	1453.258224	23.234000	-5.930000
	282.850178	1453.265834	23.250000	-5.840000
	282.950184	1453.264566	23.264000	-5.910000
	283.050189	1453.265834	23.270000	-5.890000
	283.150195	1453.269638	23.248000	-5.870000
	283.250201	1453.273443	23.264000	-5.870000
	283.350206	1453.265834	23.266000	-5.960000
	283.450212	1453.258225	23.230000	-5.960000
	283.550218	1453.264566	23.220000	-5.850000
	283.650224	1453.268371	23.232000	-5.870000
	283.750229	1453.269639	23.248000	-5.890000
	283.850235	1453.263298	23.256000	-5.950000
	283.950241	1453.259493	23.246000	-5.930000
	284.050247	1453.259493	23.246000	-5.930000
	284.150252	1453.265835	23.244000	-5.850000
	284.250258	1453.270908	23.266000	-5.860000
	284.350264	1453.270908	23.282000	-5.900000
	284.450270	1453.260762	23.240000	-5.980000
	284.550275	1453.264567	23.246000	-5.870000
	284.650281	1453.265835	23.242000	-5.890000
	284.750287	1453.263299	23.270000	-5.920000
	284.850292	1453.254421	23.266000	-5.970000
	284.950298	1453.248081	23.242000	-5.950000
	285.050304	1453.258227	23.248000	-5.820000
	285.149310	1453.256958	23.252000	-5.910000
	285.249315	1453.256958	23.252000	-5.910000
	285.349321	1453.255690	23.252000	-5.910000
	285.449327	1453.258227	23.224000	-5.880000
	285.549332	1453.268373	23.244000	-5.820000
	285.649338	1453.273446	23.288000	-5.860000
	285.749344	1453.262032	23.242000	-5.990000
	285.849349	1453.263300	23.218000	-5.890000
	285.949355	1453.267105	23.214000	-5.870000
	286.049361	1453.279788	23.246000	-5.800000
	286.149367	1453.278519	23.272000	-5.910000
	286.249372	1453.274715	23.280000	-5.930000
	286.349378	1453.264569	23.232000	-5.980000
	286.449384	1453.272179	23.234000	-5.840000
	286.549389	1453.273447	23.236000	-5.890000
	286.649395	1453.279788	23.266000	-5.850000
	286.749401	1453.279788	23.254000	-5.900000
	286.849407	1453.279788	23.256000	-5.900000
	286.949412	1453.279788	23.256000	-5.900000
	287.049418	1453.282325	23.234000	-5.880000
	287.149424	1453.289934	23.254000	-5.840000
	287.249430	1453.289934	23.256000	-5.900000
	287.349435	1453.281057	23.274000	-5.970000
	287.449441	1453.275984	23.236000	-5.940000
	287.549447	1453.282325	23.234000	-5.850000
	287.649453	1453.288667	23.262000	-5.850000
	287.750458	1453.291203	23.270000	-5.880000
	287.849464	1453.286130	23.246000	-5.940000
	287.949470	1453.284862	23.240000	-5.910000
	288.049475	1453.289935	23.242000	-5.860000
	288.149481	1453.289935	23.258000	-5.900000
	288.249487	1453.289935	23.258000	-5.900000
	288.349493	1453.284862	23.252000	-5.940000
	288.449498	1453.286130	23.220000	-5.890000
	288.549504	1453.292472	23.226000	-5.850000
	288.649510	1453.301350	23.264000	-5.830000
	288.749516	1453.291204	23.280000	-5.980000
	288.849521	1453.287399	23.230000	-5.930000
	288.949527	1453.292472	23.230000	-5.860000
	289.050533	1453.302619	23.242000	-5.820000
	289.149539	1453.300082	23.250000	-5.920000
	289.249544	1453.300082	23.254000	-5.900000
	289.349550	1453.292473	23.224000	-5.960000
	289.449555	1453.289937	23.216000	-5.920000
	289.553561	1453.289937	23.216000	-5.920000
	289.649567	1453.293741	23.234000	-5.870000
	289.749573	1453.295010	23.282000	-5.890000
	289.849578	1453.287400	23.266000	-5.960000
	289.953584	1453.288669	23.242000	-5.890000
	290.049590	1453.291205	23.248000	-5.880000
	290.149596	1453.296278	23.248000	-5.860000
	290.249601	1453.289937	23.256000	-5.950000
	290.349607	1453.287401	23.240000	-5.920000
	290.449613	1453.288669	23.222000	-5.890000
	290.549618	1453.301352	23.248000	-5.800000
	290.649624	1453.307693	23.258000	-5.850000
	290.749630	1453.301352	23.262000	-5.950000
	290.849636	1453.301352	23.262000	-5.950000
	290.950641	1453.295011	23.248000	-5.950000
	291.049647	1453.298816	23.252000	-5.870000
	291.149652	1453.300084	23.252000	-5.890000
	291.249659	1453.303889	23.244000	-5.870000
	291.349664	1453.293743	23.256000	-5.980000
	291.449670	1453.289938	23.240000	-5.930000
	291.553676	1453.292475	23.234000	-5.880000
	291.649681	1453.302621	23.268000	-5.820000
	291.749687	1453.302621	23.280000	-5.900000
	291.849693	1453.297548	23.246000	-5.940000
	291.956699	1453.297548	23.246000	-5.940000
	292.049704	1453.295012	23.242000	-5.920000
	292.149710	1453.297548	23.240000	-5.880000
	292.249716	1453.297548	23.256000	-5.900000
	292.357722	1453.293744	23.264000	-5.930000
	292.449727	1453.291207	23.236000	-5.920000
	292.549733	1453.289939	23.214000	-5.910000
	292.649738	1453.298817	23.258000	-5.830000
	292.749744	1453.298817	23.254000	-5.900000
	292.850750	1453.296280	23.256000	-5.920000
	292.949756	1453.293744	23.242000	-5.920000
	293.049761	1453.296280	23.240000	-5.880000
	293.149767	1453.300085	23.222000	-5.870000
	293.249773	1453.310231	23.234000	-5.820000
	293.349779	1453.307695	23.262000	-5.920000
	293.449784	1453.303890	23.262000	-5.930000
	293.553790	1453.301354	23.214000	-5.920000
	293.649796	1453.301354	23.214000	-5.920000
	293.749802	1453.314037	23.242000	-5.800000
	293.849807	1453.324183	23.252000	-5.820000
	293.949813	1453.273461	23.244000	-6.300000
	294.049819	1452.834785	23.622000	-9.360000
	294.149824	1452.951483	23.298000	-4.980000
	294.249830	1453.089771	23.226000	-4.810000
	294.349836	1453.083431	22.838000	-5.950000
	294.449841	1453.223001	23.166000	-4.800000
	294.549847	1453.313074	23.210000	-5.190000
	294.649853	1453.318147	23.198000	-5.860000
	294.749858	1453.313074	23.188000	-5.940000
	294.849864	1453.313074	23.188000	-5.940000
	294.949870	1453.302928	23.262000	-5.980000
	295.049876	1453.296587	23.246000	-5.950000
	295.149881	1453.282637	23.286000	-6.010000
	295.249887	1453.269956	23.276000	-6.000000
	295.349893	1453.261078	23.262000	-5.970000
	295.449899	1453.261078	23.242000	-5.900000
	295.558905	1453.258542	23.292000	-5.920000
	295.649910	1453.217965	23.358000	-6.220000
	295.749916	1453.144427	23.422000	-6.480000
	295.849922	1453.077231	23.446000	-6.430000
	295.949927	1453.002432	23.478000	-6.490000
	296.049933	1452.931440	23.544000	-6.460000
	296.149939	1452.842708	23.586000	-6.600000
	296.249944	1452.842708	23.586000	-6.600000
	296.349950	1452.753982	23.610000	-6.600000
	296.449956	1452.608242	23.728000	-7.050000
	296.550961	1452.471386	23.980000	-6.980000
	296.649967	1452.800269	24.464000	-3.310000
	296.760973	1452.607645	23.838000	-7.420000
	296.849979	1452.449251	23.816000	-7.150000
	296.949985	1452.331411	23.830000	-6.830000
	297.055991	1452.237649	23.832000	-6.640000
	297.149996	1452.159093	23.832000	-6.520000
	297.250001	1452.098277	23.846000	-6.380000
	297.300004	1452.048864	23.850000	-6.290000
	297.450013	1451.996919	23.848000	-6.310000
	297.550019	1451.953843	23.854000	-6.240000
	297.650024	1451.917103	23.850000	-6.190000
	297.750030	1451.917103	23.850000	-6.190000
	297.850036	1451.891764	23.866000	-6.100000
	297.950042	1451.874027	23.832000	-6.040000
	298.050047	1451.853756	23.848000	-6.060000
	298.150053	1451.829685	23.860000	-6.090000
	298.250059	1451.815750	23.846000	-6.010000
	298.300062	1451.801814	23.842000	-6.010000
	298.400067	1451.787878	23.838000	-6.010000
	298.550076	1451.781544	23.814000	-5.950000
	298.650082	1451.779010	23.814000	-5.920000
	298.750087	1451.767608	23.836000	-5.990000
	298.850093	1451.768875	23.824000	-5.890000
	298.950099	1451.776477	23.806000	-5.840000
	299.050105	1451.780277	23.812000	-5.870000
	299.150110	1451.780277	23.812000	-5.870000
	299.250116	1451.775210	23.816000	-5.940000
	299.350121	1451.777744	23.820000	-5.880000
	299.450128	1451.772676	23.796000	-5.940000
	299.550133	1451.765075	23.804000	-5.960000
	299.650139	1451.772676	23.824000	-5.840000
	299.750144	1451.776477	23.788000	-5.870000
	299.850150	1451.785346	23.800000	-5.830000
	299.950156	1451.787880	23.792000	-5.880000
	300.050162	1451.799282	23.810000	-5.810000
	300.150167	1451.811952	23.810000	-5.800000
	300.250173	1451.817020	23.796000	-5.860000
	300.350179	1451.830957	23.784000	-5.790000
	300.450185	1451.838559	23.844000	-5.840000
	300.550190	1451.838559	23.844000	-5.840000
	300.650196	1451.842360	23.816000	-5.870000
	300.750202	1451.851229	23.822000	-5.830000
	300.850207	1451.849962	23.820000	-5.910000
	300.950213	1451.848695	23.840000	-5.910000
	301.050219	1451.849962	23.840000	-5.890000
	301.150225	1451.852496	23.820000	-5.880000
	301.250230	1451.856297	23.812000	-5.870000
	301.350236	1451.860098	23.828000	-5.870000
	301.453242	1451.860098	23.842000	-5.900000
	301.550248	1451.863899	23.842000	-5.870000
	301.650253	1451.862632	23.808000	-5.910000
	301.750259	1451.863899	23.820000	-5.890000
	301.850265	1451.858832	23.820000	-5.940000
	301.950270	1451.852497	23.814000	-5.950000
	302.050276	1451.852497	23.814000	-5.950000
	302.150282	1451.844895	23.824000	-5.960000
	302.250288	1451.843628	23.826000	-5.910000
	302.350293	1451.837293	23.830000	-5.950000
	302.450299	1451.838560	23.820000	-5.890000
	302.550305	1451.834759	23.826000	-5.930000
	302.649311	1451.841094	23.796000	-5.850000
	302.749316	1451.838561	23.792000	-5.920000
	302.849322	1451.838561	23.756000	-5.900000
	302.949327	1451.843628	23.788000	-5.860000
	303.049333	1451.844895	23.784000	-5.890000
	303.149339	1451.853765	23.782000	-5.830000
	303.249345	1451.853765	23.782000	-5.830000
	303.349350	1451.857566	23.794000	-5.870000
	303.449356	1451.847430	23.764000	-5.980000
	303.549362	1451.847430	23.798000	-5.900000
	303.649368	1451.855032	23.790000	-5.840000
	303.749373	1451.853765	23.806000	-5.910000
	303.849379	1451.857566	23.782000	-5.870000
	303.949385	1451.857566	23.774000	-5.900000
	304.049390	1451.871504	23.776000	-5.790000
	304.149396	1451.884174	23.786000	-5.800000
	304.249402	1451.889242	23.780000	-5.860000
	304.349408	1451.898112	23.790000	-5.830000
	304.449413	1451.900646	23.788000	-5.880000
	304.549419	1451.908248	23.798000	-5.840000
	304.649425	1451.908248	23.798000	-5.840000
	304.749431	1451.905714	23.790000	-5.920000
	304.849436	1451.912049	23.790000	-5.850000
	304.949442	1451.913316	23.800000	-5.890000
	305.049448	1451.920919	23.828000	-5.840000
	305.149453	1451.922186	23.808000	-5.890000
	305.251459	1451.928521	23.788000	-5.850000
	305.349465	1451.933589	23.796000	-5.860000
	305.449471	1451.933589	23.772000	-5.900000
	305.549476	1451.934856	23.786000	-5.890000
	305.649482	1451.934856	23.814000	-5.900000
	305.749488	1451.937391	23.808000	-5.880000
	305.849494	1451.937391	23.814000	-5.900000
	305.949499	1451.942459	23.802000	-5.860000
	306.049505	1451.943726	23.816000	-5.890000
	306.149510	1451.943726	23.806000	-5.900000
	306.249516	1451.943726	23.806000	-5.900000
	306.349522	1451.942459	23.820000	-5.910000
	306.449528	1451.936124	23.790000	-5.950000
	306.549533	1451.934857	23.802000	-5.910000
	306.649539	1451.919653	23.830000	-6.020000
	306.749545	1451.920920	23.796000	-5.890000
	306.849551	1451.918386	23.790000	-5.920000
	306.949556	1451.914585	23.796000	-5.930000
	307.049562	1451.912051	23.786000	-5.920000
	307.150568	1451.909517	23.784000	-5.920000
	307.249574	1451.912051	23.764000	-5.880000
	307.349579	1451.914585	23.776000	-5.880000
	307.449585	1451.914585	23.776000	-5.880000
	307.549591	1451.925989	23.778000	-5.810000
	307.649596	1451.927256	23.774000	-5.890000
	307.749602	1451.932324	23.766000	-5.860000
	307.849608	1451.937392	23.766000	-5.860000
	307.950613	1451.941193	23.764000	-5.870000
	308.049619	1451.950063	23.790000	-5.830000
	308.149625	1451.953864	23.786000	-5.870000
	308.249631	1451.958933	23.772000	-5.860000
	308.349637	1451.964001	23.796000	-5.860000
	308.449642	1451.962734	23.800000	-5.910000
	308.549648	1451.965268	23.792000	-5.880000
	308.649653	1451.970337	23.784000	-5.860000
	308.749660	1451.970337	23.802000	-5.900000
	308.849665	1451.965268	23.804000	-5.940000
	308.949671	1451.964001	23.812000	-5.910000
	309.049676	1451.953865	23.788000	-5.980000
	309.149682	1451.953865	23.788000	-5.980000
	309.249688	1451.942462	23.796000	-5.990000
	309.349694	1451.936127	23.778000	-5.950000
	309.449699	1451.934860	23.802000	-5.910000
	309.549705	1451.929791	23.788000	-5.940000
	309.649711	1451.923456	23.782000	-5.950000
	309.749716	1451.922189	23.756000	-5.910000
	309.849722	1451.925991	23.766000	-5.870000
	309.949728	1451.928525	23.758000	-5.880000
	310.049734	1451.934860	23.762000	-5.850000
	310.149739	1451.933593	23.774000	-5.910000
	310.249745	1451.934860	23.752000	-5.890000
	310.349751	1451.937394	23.760000	-5.880000
	310.449757	1451.942462	23.772000	-5.860000
	310.549762	1451.942462	23.772000	-5.860000
	310.649768	1451.944997	23.798000	-5.880000
	310.749774	1451.952599	23.780000	-5.840000
	310.849780	1451.961469	23.772000	-5.830000
	310.949785	1451.967804	23.768000	-5.850000
	311.049791	1451.971606	23.780000	-5.870000
	311.149796	1451.977941	23.788000	-5.850000
	311.249802	1451.981743	23.794000	-5.870000
	311.349808	1451.989345	23.810000	-5.840000
	311.449814	1451.994414	23.796000	-5.860000
	311.549819	1451.999482	23.804000	-5.860000
	311.649825	1451.998215	23.808000	-5.910000
	311.749831	1451.998215	23.788000	-5.900000
	311.849837	1451.990613	23.812000	-5.960000
	311.949842	1451.990613	23.786000	-5.900000
	312.049848	1451.990613	23.786000	-5.900000
	312.149854	1451.985544	23.798000	-5.940000
	312.249859	1451.984277	23.810000	-5.910000
	312.349865	1451.979209	23.814000	-5.940000
	312.449871	1451.976675	23.782000	-5.920000
	312.549877	1451.974141	23.804000	-5.920000
	312.649882	1451.972874	23.806000	-5.910000
	312.749888	1451.971607	23.782000	-5.910000
	312.849894	1451.969072	23.786000	-5.920000
	312.949900	1451.962737	23.770000	-5.950000
	313.049905	1451.962737	23.786000	-5.900000
	313.149911	1451.957669	23.756000	-5.940000
	313.249917	1451.957669	23.756000	-5.900000
	313.349922	1451.961470	23.780000	-5.870000
	313.449928	1451.961470	23.750000	-5.900000
	313.549934	1451.969073	23.758000	-5.840000
	313.649940	1451.971607	23.756000	-5.880000
	313.749945	1451.971607	23.756000	-5.880000
	313.849951	1451.974141	23.764000	-5.880000
	313.949957	1451.976675	23.766000	-5.880000
	314.049963	1451.981744	23.734000	-5.860000
	314.149968	1451.983011	23.738000	-5.890000
	314.249974	1451.988079	23.774000	-5.860000
	314.349979	1451.996949	23.778000	-5.830000
	314.449986	1452.005819	23.782000	-5.830000
	314.549991	1452.009621	23.772000	-5.870000
	314.649997	1452.010888	23.782000	-5.890000
	314.750002	1452.015957	23.788000	-5.860000
	314.850008	1452.015957	23.796000	-5.900000
	314.950014	1452.010888	23.788000	-5.940000
	315.050020	1452.019758	23.790000	-5.830000
	315.150025	1452.021025	23.790000	-5.890000
	315.250031	1452.013423	23.776000	-5.960000
	315.350037	1452.004553	23.792000	-5.970000
	315.450043	1452.004553	23.792000	-5.970000
	315.550048	1451.999485	23.798000	-5.940000
	315.650054	1451.995684	23.776000	-5.930000
	315.750060	1451.991882	23.774000	-5.930000
	315.850065	1451.994417	23.764000	-5.880000
	315.950071	1451.996951	23.754000	-5.880000
	316.050077	1451.996951	23.760000	-5.900000
	316.150083	1452.003286	23.740000	-5.850000
	316.250088	1452.004554	23.754000	-5.890000
	316.350094	1452.005821	23.766000	-5.890000
	316.450100	1452.014691	23.768000	-5.830000
	316.550106	1452.024828	23.760000	-5.820000
	316.650111	1452.032431	23.774000	-5.840000
	316.750117	1452.029897	23.768000	-5.920000
	316.850122	1452.029897	23.782000	-5.900000
	316.950129	1452.032431	23.778000	-5.880000
	317.050134	1452.032431	23.778000	-5.880000
	317.150140	1452.036233	23.788000	-5.870000
	317.250145	1452.034965	23.798000	-5.910000
	317.350151	1452.028630	23.794000	-5.950000
	317.450157	1452.023561	23.776000	-5.940000
	317.550163	1452.019760	23.756000	-5.930000
	317.650168	1452.009623	23.756000	-5.980000
	317.750174	1452.017226	23.764000	-5.840000
	317.850180	1452.023562	23.770000	-5.850000
	317.950186	1452.028631	23.758000	-5.860000
	318.050191	1452.034967	23.760000	-5.850000
	318.150197	1452.038768	23.750000	-5.870000
	318.250203	1452.046371	23.778000	-5.840000
	318.350208	1452.045104	23.778000	-5.910000
	318.450214	1452.045104	23.778000	-5.910000
	318.550220	1452.041303	23.798000	-5.930000
	318.650226	1452.038768	23.794000	-5.920000
	318.750231	1452.033700	23.774000	-5.940000
	318.850237	1452.023563	23.780000	-5.980000
	318.950243	1452.019762	23.766000	-5.930000
	319.050249	1452.018495	23.756000	-5.910000
	319.150254	1452.017227	23.728000	-5.910000
	319.250260	1452.019762	23.746000	-5.880000
	319.350266	1452.029899	23.728000	-5.820000
	319.450272	1452.033701	23.756000	-5.870000
	319.550277	1452.036235	23.774000	-5.880000
	319.650283	1452.047640	23.756000	-5.810000
	319.750288	1452.052708	23.790000	-5.860000
	319.850294	1452.048907	23.788000	-5.930000
	319.950300	1452.048907	23.788000	-5.930000
	320.050306	1452.047640	23.784000	-5.910000
	320.149312	1452.042571	23.764000	-5.940000
	320.249317	1452.047640	23.778000	-5.860000
	320.349323	1452.040037	23.740000	-5.960000
	320.449328	1452.034969	23.754000	-5.940000
	320.549334	1452.040037	23.734000	-5.860000
	320.649340	1452.047640	23.754000	-5.840000
	320.749346	1452.052709	23.758000	-5.860000
	320.849351	1452.050175	23.790000	-5.920000
	320.949357	1452.053976	23.788000	-5.870000
	321.049363	1452.051442	23.778000	-5.920000
	321.149369	1452.047641	23.780000	-5.930000
	321.249374	1452.040038	23.750000	-5.960000
	321.349380	1452.036236	23.764000	-5.930000
	321.449386	1452.036236	23.764000	-5.930000
	321.549391	1452.034969	23.744000	-5.910000
	321.649397	1452.037504	23.754000	-5.880000
	321.749403	1452.036237	23.724000	-5.910000
	321.849409	1452.043840	23.722000	-5.840000
	321.949414	1452.053977	23.764000	-5.820000
	322.049420	1452.059046	23.774000	-5.860000
	322.149426	1452.059046	23.762000	-5.900000
	322.249432	1452.053977	23.770000	-5.940000
	322.349437	1452.052710	23.782000	-5.910000
	322.449443	1452.052710	23.778000	-5.900000
	322.549448	1452.050176	23.770000	-5.920000
	322.649455	1452.053977	23.758000	-5.870000
	322.749460	1452.053977	23.734000	-5.900000
	322.849466	1452.051443	23.744000	-5.920000
	322.949471	1452.053977	23.748000	-5.880000
	323.049477	1452.053977	23.748000	-5.880000
	323.149483	1452.062848	23.736000	-5.830000
	323.249489	1452.067916	23.772000	-5.860000
	323.349494	1452.061581	23.768000	-5.950000
	323.449500	1452.062848	23.780000	-5.890000
	323.549506	1452.057779	23.758000	-5.940000
	323.649512	1452.051444	23.764000	-5.950000
	323.749517	1452.045108	23.742000	-5.950000
	323.849523	1452.052711	23.760000	-5.840000
	323.949529	1452.055245	23.742000	-5.880000
	324.049534	1452.062849	23.776000	-5.840000
	324.149540	1452.060314	23.776000	-5.920000
	324.249546	1452.059047	23.790000	-5.910000
	324.349552	1452.059047	23.790000	-5.910000
	324.449557	1452.053979	23.786000	-5.940000
	324.549563	1452.052711	23.754000	-5.910000
	324.649569	1452.050177	23.760000	-5.920000
	324.749575	1452.045109	23.714000	-5.940000
	324.849580	1452.045109	23.742000	-5.900000
	324.949586	1452.051445	23.758000	-5.850000
	325.049592	1452.057780	23.754000	-5.850000
	325.149597	1452.062849	23.770000	-5.860000
	325.249603	1452.067918	23.766000	-5.860000
	325.349609	1452.067918	23.780000	-5.900000
	325.449615	1452.062849	23.766000	-5.940000
	325.549620	1452.067918	23.774000	-5.860000
	325.649626	1452.069185	23.742000	-5.890000
	325.749632	1452.065384	23.728000	-5.930000
	325.849638	1452.072987	23.764000	-5.840000
	325.949643	1452.072987	23.764000	-5.840000
	326.049649	1452.075521	23.742000	-5.880000
	326.149654	1452.080590	23.748000	-5.860000
	326.249660	1452.084392	23.762000	-5.870000
	326.349666	1452.086926	23.768000	-5.880000
	326.449672	1452.083125	23.764000	-5.930000
	326.549677	1452.076789	23.766000	-5.950000
	326.649683	1452.075522	23.748000	-5.910000
	326.749689	1452.074255	23.742000	-5.910000
	326.849695	1452.074255	23.730000	-5.900000
	326.949700	1452.074255	23.742000	-5.900000
	327.049706	1452.078056	23.740000	-5.870000
	327.149712	1452.086927	23.744000	-5.830000
	327.249718	1452.086927	23.782000	-5.900000
	327.349723	1452.079324	23.768000	-5.960000
	327.449729	1452.079324	23.768000	-5.960000
	327.549735	1452.071721	23.740000	-5.960000
	327.649740	1452.067919	23.738000	-5.930000
	327.749746	1452.066652	23.734000	-5.910000
	327.849752	1452.070454	23.726000	-5.870000
	327.949758	1452.084393	23.748000	-5.790000
	328.049763	1452.085660	23.760000	-5.890000
	328.149769	1452.086928	23.770000	-5.890000
	328.249775	1452.091997	23.786000	-5.860000
	328.349781	1452.086928	23.802000	-5.940000
	328.449786	1452.084393	23.760000	-5.920000
	328.549792	1452.067921	23.752000	-6.030000
	328.649797	1452.069188	23.750000	-5.890000
	328.749803	1452.069188	23.748000	-5.900000
	328.849809	1452.076791	23.744000	-5.840000
	328.949815	1452.085662	23.744000	-5.830000
	329.049820	1452.085662	23.744000	-5.830000
	329.149826	1452.095800	23.754000	-5.820000
	329.249832	1452.094533	23.794000	-5.910000
	329.349838	1452.094533	23.764000	-5.900000
	329.449843	1452.093265	23.770000	-5.910000
	329.549849	1452.083128	23.752000	-5.980000
	329.649855	1452.080594	23.742000	-5.920000
	329.749860	1452.078060	23.744000	-5.920000
	329.849866	1452.079327	23.708000	-5.890000
	329.949872	1452.076792	23.728000	-5.920000
	330.049878	1452.088197	23.740000	-5.810000
	330.149883	1452.098335	23.752000	-5.820000
	330.249889	1452.107206	23.754000	-5.830000
	330.349895	1452.109740	23.756000	-5.880000
	330.449901	1452.112275	23.770000	-5.880000
	330.549906	1452.109740	23.772000	-5.920000
	330.649912	1452.113542	23.748000	-5.870000
	330.749918	1452.113542	23.748000	-5.870000
	330.849924	1452.105939	23.756000	-5.960000
	330.949929	1452.095802	23.726000	-5.980000
	331.049935	1452.094535	23.706000	-5.910000
	331.149940	1452.090733	23.714000	-5.930000
	331.249946	1452.094535	23.736000	-5.870000
	331.349952	1452.105940	23.740000	-5.810000
	331.449958	1452.112276	23.762000	-5.850000
	331.549963	1452.114810	23.750000	-5.880000
	331.649969	1452.118612	23.772000	-5.870000
	331.749975	1452.114810	23.762000	-5.930000
	331.849981	1452.116078	23.776000	-5.890000
	331.949986	1452.111009	23.762000	-5.940000
	332.049992	1452.103406	23.736000	-5.960000
	332.149998	1452.103406	23.736000	-5.960000
	332.250003	1452.099604	23.730000	-5.930000
	332.350009	1452.095803	23.754000	-5.930000
	332.450015	1452.090734	23.738000	-5.940000
	332.550021	1452.100872	23.742000	-5.820000
	332.650026	1452.102139	23.716000	-5.890000
	332.750032	1452.112277	23.728000	-5.820000
	332.850038	1452.114812	23.714000	-5.880000
	332.950044	1452.123682	23.744000	-5.830000
	333.050049	1452.127484	23.762000	-5.870000
	333.150055	1452.123682	23.758000	-5.930000
	333.250061	1452.119881	23.752000	-5.930000
	333.350066	1452.111011	23.762000	-5.970000
	333.450072	1452.111011	23.736000	-5.900000
	333.550078	1452.102140	23.728000	-5.970000
	333.650084	1452.098339	23.696000	-5.930000
	333.750089	1452.098339	23.696000	-5.930000
	333.850095	1452.095804	23.704000	-5.920000
	333.950101	1452.100873	23.712000	-5.860000
	334.050107	1452.103408	23.730000	-5.880000
	334.150112	1452.113546	23.720000	-5.820000
	334.250118	1452.121149	23.754000	-5.840000
	334.350123	1452.127485	23.752000	-5.850000
	334.450130	1452.122417	23.740000	-5.940000
	334.550135	1452.122417	23.750000	-5.900000
	334.650141	1452.121149	23.740000	-5.910000
	334.750146	1452.121149	23.756000	-5.900000
	334.850152	1452.114813	23.756000	-5.950000
	334.950158	1452.107210	23.746000	-5.960000
	335.050164	1452.103409	23.736000	-5.930000
	335.150169	1452.103409	23.732000	-5.900000
	335.250175	1452.104676	23.744000	-5.890000
	335.350181	1452.104676	23.744000	-5.890000
	335.450187	1452.116081	23.720000	-5.810000
	335.550192	1452.126219	23.734000	-5.820000
	335.650198	1452.124952	23.746000	-5.910000
	335.750204	1452.127487	23.774000	-5.880000
	335.850209	1452.128754	23.744000	-5.890000
	335.950215	1452.121151	23.760000	-5.960000
	336.050221	1452.118616	23.748000	-5.920000
	336.150227	1452.116082	23.724000	-5.920000
	336.250232	1452.113547	23.736000	-5.920000
	336.350238	1452.111013	23.720000	-5.920000
	336.450243	1452.112280	23.698000	-5.890000
	336.550250	1452.119884	23.724000	-5.840000
	336.650255	1452.123685	23.740000	-5.870000
	336.750261	1452.123685	23.746000	-5.900000
	336.850266	1452.123685	23.746000	-5.900000
	336.950272	1452.121151	23.762000	-5.920000
	337.050278	1452.116082	23.752000	-5.940000
	337.150284	1452.108479	23.724000	-5.960000
	337.250289	1452.104678	23.722000	-5.930000
	337.350295	1452.104678	23.730000	-5.900000
	337.450301	1452.104678	23.710000	-5.900000
	337.549306	1452.113548	23.742000	-5.830000
	337.649312	1452.123686	23.738000	-5.820000
	337.749318	1452.121152	23.764000	-5.920000
	337.849324	1452.118617	23.760000	-5.920000
	337.949329	1452.118617	23.776000	-5.900000
	338.049335	1452.116083	23.760000	-5.920000
	338.149341	1452.114816	23.738000	-5.910000
	338.249347	1452.114816	23.738000	-5.910000
	338.349352	1452.113549	23.740000	-5.910000
	338.449358	1452.112281	23.716000	-5.910000
	338.549364	1452.122419	23.732000	-5.820000
	338.649370	1452.140162	23.734000	-5.760000
	338.749375	1452.137627	23.756000	-5.920000
	338.849381	1452.131291	23.762000	-5.950000
	338.949387	1452.124955	23.760000	-5.950000
	339.049392	1452.119886	23.740000	-5.940000
	339.149398	1452.118619	23.726000	-5.910000
	339.249404	1452.122421	23.720000	-5.870000
	339.349410	1452.128757	23.720000	-5.850000
	339.449415	1452.133826	23.714000	-5.860000
	339.549421	1452.132559	23.736000	-5.910000
	339.649427	1452.135093	23.778000	-5.880000
	339.749433	1452.132559	23.752000	-5.920000
	339.849438	1452.132559	23.752000	-5.920000
	339.949444	1452.128757	23.756000	-5.930000
	340.049449	1452.121154	23.760000	-5.960000
	340.149455	1452.119887	23.696000	-5.910000
	340.249461	1452.121154	23.726000	-5.890000
	340.349467	1452.126223	23.706000	-5.860000
	340.449472	1452.128758	23.712000	-5.880000
	340.549478	1452.123689	23.734000	-5.940000
	340.649484	1452.130025	23.738000	-5.850000
	340.749490	1452.131292	23.748000	-5.890000
	340.849495	1452.119888	23.756000	-5.990000
	340.949501	1452.119888	23.742000	-5.900000
	341.049507	1452.123689	23.734000	-5.870000
	341.149512	1452.131293	23.736000	-5.840000
	341.249518	1452.136362	23.718000	-5.860000
	341.349524	1452.136362	23.718000	-5.860000
	341.449530	1452.145233	23.704000	-5.830000
	341.549535	1452.146500	23.746000	-5.890000
	341.649541	1452.145233	23.744000	-5.910000
	341.749547	1452.135095	23.720000	-5.980000
	341.849553	1452.135095	23.740000	-5.900000
	341.949558	1452.131294	23.718000	-5.930000
	342.049564	1452.133828	23.700000	-5.880000
	342.149570	1452.142699	23.712000	-5.830000
	342.249576	1452.151570	23.742000	-5.830000
	342.349581	1452.155372	23.726000	-5.870000
	342.449587	1452.157906	23.750000	-5.880000
	342.549592	1452.157906	23.730000	-5.900000
	342.649598	1452.150303	23.722000	-5.960000
	342.749604	1452.150303	23.722000	-5.960000
	342.849610	1452.145234	23.726000	-5.940000
	342.949615	1452.150303	23.712000	-5.860000
	343.049621	1452.155372	23.730000	-5.860000
	343.149627	1452.161708	23.716000	-5.850000
	343.249633	1452.168045	23.744000	-5.850000
	343.349638	1452.165510	23.754000	-5.920000
	343.449644	1452.162976	23.722000	-5.920000
	343.549650	1452.160441	23.746000	-5.920000
	343.649655	1452.154105	23.730000	-5.950000
	343.749661	1452.155372	23.722000	-5.890000
	343.849667	1452.159174	23.708000	-5.870000
	343.949673	1452.164243	23.714000	-5.860000
	344.049678	1452.176916	23.730000	-5.800000
	344.149684	1452.175649	23.724000	-5.910000
	344.249690	1452.174382	23.740000	-5.910000
	344.349696	1452.174382	23.740000	-5.910000
	344.449701	1452.165511	23.720000	-5.970000
	344.549707	1452.159175	23.752000	-5.950000
	344.649713	1452.154106	23.712000	-5.940000
	344.749718	1452.154106	23.708000	-5.900000
	344.849724	1452.157908	23.714000	-5.870000
	344.949730	1452.166779	23.746000	-5.830000
	345.049736	1452.166779	23.738000	-5.900000
	345.149741	1452.166779	23.754000	-5.900000
	345.249747	1452.164245	23.726000	-5.920000
	345.349753	1452.160443	23.746000	-5.930000
	345.449759	1452.156641	23.736000	-5.930000
	345.549764	1452.156641	23.708000	-5.900000
	345.649770	1452.162978	23.706000	-5.850000
	345.749775	1452.157909	23.724000	-5.940000
	345.849782	1452.161710	23.718000	-5.870000
	345.949787	1452.161710	23.718000	-5.870000
	346.049793	1452.170581	23.740000	-5.830000
	346.149798	1452.171849	23.742000	-5.890000
	346.249804	1452.164245	23.762000	-5.960000
	346.349810	1452.154108	23.730000	-5.980000
	346.449816	1452.151573	23.694000	-5.920000
	346.549821	1452.149039	23.708000	-5.920000
	346.649827	1452.155375	23.740000	-5.850000
	346.749833	1452.156642	23.746000	-5.890000
	346.849839	1452.154108	23.744000	-5.920000
	346.949844	1452.151573	23.732000	-5.920000
	347.049850	1452.152841	23.706000	-5.890000
	347.149856	1452.146505	23.742000	-5.950000
	347.249861	1452.155375	23.712000	-5.830000
	347.349867	1452.155375	23.712000	-5.830000
	347.449873	1452.162979	23.708000	-5.840000
	347.549879	1452.169316	23.734000	-5.850000
	347.649884	1452.173117	23.742000	-5.870000
	347.749890	1452.174385	23.750000	-5.890000
	347.849895	1452.173117	23.760000	-5.910000
	347.954902	1452.171850	23.712000	-5.910000
	348.049907	1452.169316	23.696000	-5.920000
	348.149913	1452.173117	23.720000	-5.870000
	348.249918	1452.179454	23.734000	-5.850000
	348.349924	1452.189592	23.718000	-5.820000
	348.449930	1452.194662	23.754000	-5.860000
	348.549936	1452.190860	23.740000	-5.930000
	348.649941	1452.179455	23.736000	-5.990000
	348.749947	1452.176920	23.720000	-5.920000
	348.849953	1452.176920	23.720000	-5.920000
	348.949959	1452.179455	23.696000	-5.880000
	349.049964	1452.184524	23.714000	-5.860000
	349.149970	1452.188326	23.730000	-5.870000
	349.249976	1452.188326	23.734000	-5.900000
	349.349981	1452.183257	23.710000	-5.940000
	349.449987	1452.178188	23.738000	-5.940000
	349.549993	1452.174386	23.716000	-5.930000
	349.649999	1452.171852	23.706000	-5.920000
	349.750004	1452.179455	23.720000	-5.840000
	349.850010	1452.188326	23.722000	-5.830000
	349.950016	1452.193396	23.744000	-5.860000
	350.050022	1452.188327	23.734000	-5.940000
	350.150027	1452.184525	23.750000	-5.930000
	350.250033	1452.184525	23.720000	-5.900000
	350.350039	1452.179456	23.716000	-5.940000
	350.450045	1452.179456	23.716000	-5.940000
	350.550050	1452.180723	23.708000	-5.890000
	350.650056	1452.185792	23.714000	-5.860000
	350.750062	1452.181991	23.732000	-5.930000
	350.850067	1452.178189	23.742000	-5.930000
	350.950073	1452.179456	23.732000	-5.890000
	351.050079	1452.173120	23.738000	-5.950000
	351.150084	1452.178189	23.722000	-5.860000
	351.250090	1452.178189	23.722000	-5.900000
	351.350096	1452.181991	23.738000	-5.870000
	351.450102	1452.179456	23.730000	-5.920000
	351.550107	1452.173120	23.744000	-5.950000
	351.650113	1452.171853	23.730000	-5.910000
	351.750119	1452.171853	23.710000	-5.900000
	351.850124	1452.184526	23.708000	-5.800000
	351.950130	1452.184526	23.708000	-5.800000
	352.050136	1452.188328	23.730000	-5.870000
	352.150142	1452.192130	23.738000	-5.870000
	352.250147	1452.189595	23.736000	-5.920000
	352.350153	1452.187061	23.748000	-5.920000
	352.450159	1452.188328	23.700000	-5.890000
	352.550165	1452.180725	23.708000	-5.960000
	352.650170	1452.184526	23.732000	-5.870000
	352.750176	1452.190863	23.720000	-5.850000
	352.850182	1452.183259	23.720000	-5.960000
	352.950188	1452.176923	23.722000	-5.950000
	353.050193	1452.170587	23.684000	-5.950000
	353.150199	1452.176923	23.708000	-5.850000
	353.250205	1452.180725	23.724000	-5.870000
	353.350210	1452.183260	23.730000	-5.880000
	353.450216	1452.183260	23.730000	-5.880000
	353.550222	1452.181993	23.720000	-5.910000
	353.650228	1452.176924	23.716000	-5.940000
	353.750233	1452.179458	23.722000	-5.880000
	353.850239	1452.181993	23.698000	-5.880000
	353.950245	1452.187062	23.718000	-5.860000
	354.050251	1452.192131	23.736000	-5.860000
	354.150256	1452.189596	23.724000	-5.920000
	354.250262	1452.188329	23.714000	-5.910000
	354.350267	1452.180726	23.712000	-5.960000
	354.450274	1452.180726	23.710000	-5.900000
	354.550279	1452.181993	23.724000	-5.890000
	354.650285	1452.184528	23.722000	-5.880000
	354.750290	1452.184528	23.728000	-5.900000
	354.850296	1452.180726	23.724000	-5.930000
	354.950302	1452.175657	23.728000	-5.940000
	355.049307	1452.179459	23.712000	-5.870000
	355.149313	1452.179459	23.712000	-5.870000
	355.249319	1452.185795	23.712000	-5.850000
	355.349325	1452.187062	23.722000	-5.890000
	355.449330	1452.188330	23.750000	-5.890000
	355.549336	1452.187062	23.726000	-5.910000
	355.649342	1452.192132	23.726000	-5.860000
	355.749348	1452.185795	23.722000	-5.950000
	355.849353	1452.190865	23.716000	-5.860000
	355.949359	1452.197201	23.750000	-5.850000
	356.049365	1452.198468	23.734000	-5.890000
	356.149370	1452.197201	23.714000	-5.910000
	356.249376	1452.190865	23.708000	-5.950000
	356.349382	1452.188330	23.694000	-5.920000
	356.449388	1452.189598	23.702000	-5.890000
	356.549393	1452.194667	23.712000	-5.860000
	356.649399	1452.189598	23.738000	-5.940000
	356.749405	1452.189598	23.738000	-5.940000
	356.849411	1452.188330	23.740000	-5.910000
	356.949416	1452.181994	23.718000	-5.950000
	357.049422	1452.181994	23.710000	-5.900000
	357.149427	1452.184529	23.698000	-5.880000
	357.249434	1452.193400	23.722000	-5.830000
	357.349439	1452.190865	23.742000	-5.920000
	357.449445	1452.184529	23.732000	-5.950000
	357.549450	1452.181995	23.718000	-5.920000
	357.649456	1452.189598	23.702000	-5.840000
	357.749462	1452.198470	23.738000	-5.830000
	357.849468	1452.194668	23.736000	-5.930000
	357.950473	1452.181996	23.740000	-6.000000
	358.049479	1452.179461	23.696000	-5.920000
	358.149485	1452.179461	23.696000	-5.920000
	358.249491	1452.189600	23.698000	-5.820000
	358.349496	1452.197203	23.730000	-5.840000
	358.467503	1452.201005	23.714000	-5.870000
	358.549508	1452.199738	23.746000	-5.910000
	358.651514	1452.194669	23.730000	-5.940000
	358.749519	1452.190867	23.716000	-5.930000
	358.849525	1452.202273	23.750000	-5.810000
	358.949531	1452.204808	23.744000	-5.880000
	359.049536	1452.199739	23.734000	-5.940000
	359.150542	1452.190868	23.720000	-5.970000
	359.250548	1452.189601	23.704000	-5.910000
	359.350554	1452.203541	23.712000	-5.790000
	359.449559	1452.203541	23.712000	-5.790000
	359.549565	1452.206076	23.732000	-5.880000
	359.649570	1452.202274	23.722000	-5.930000
	359.749577	1452.199740	23.728000	-5.920000
	359.849582	1452.199740	23.700000	-5.900000
	359.949588	1452.202274	23.682000	-5.880000
	360.049593	1452.204809	23.716000	-5.880000
	360.150599	1452.199740	23.740000	-5.940000
	360.250605	1452.197205	23.712000	-5.920000
	360.350611	1452.198473	23.712000	-5.890000
	360.449616	1452.208611	23.712000	-5.820000
	360.549622	1452.216215	23.726000	-5.840000
	360.649628	1452.214948	23.748000	-5.910000
	360.749634	1452.206077	23.732000	-5.970000
	360.849639	1452.206077	23.732000	-5.970000
	360.951645	1452.202275	23.718000	-5.930000
	361.049651	1452.204810	23.692000	-5.880000
	361.149656	1452.208612	23.708000	-5.870000
	361.249662	1452.212414	23.732000	-5.870000
	361.350668	1452.209879	23.762000	-5.920000
	361.449674	1452.206077	23.724000	-5.930000
	361.549679	1452.212414	23.702000	-5.850000
	361.653685	1452.216216	23.718000	-5.870000
	361.754691	1452.217483	23.728000	-5.890000
