LabVIEW Measurement	
Writer_Version	2
Reader_Version	2
Separator	Tab
Decimal_Separator	.
Multi_Headings	No
X_Columns	No
Time_Pref	Relative
Operator	Herve
Date	2023/08/01
Time	17:46:46.9164776802062988281
***End_of_Header***	
	
Channels	4				
Samples	4228	4228	4228	4228	
Date	1904/01/01	1904/01/01	1904/01/01	1904/01/01	
Time	09:00:00	09:00:00	09:00:00	09:00:00	
Y_Unit_Label	s	Hz	mV	°	
X_Dimension	Time	Time	Time	Time	
X0	0.0000000000000000E+0	0.0000000000000000E+0	0.0000000000000000E+0	0.0000000000000000E+0	
Delta_X	1.000000	1.000000	1.000000	1.000000	
***End_of_Header***					
X_Value	Time	Res.Frequency	Amplitude	Phase	Comment
	0.050003	1363.392296	11.790000	-4.990000
	0.100006	1363.386348	11.786000	-4.950000
	0.250014	1363.386348	11.766000	-4.900000
	0.350020	1363.391107	11.776000	-4.860000
	0.450026	1363.386348	11.770000	-4.940000
	0.550031	1363.381589	11.790000	-4.940000
	0.651037	1363.388728	11.778000	-4.840000
	0.752043	1363.393487	11.772000	-4.860000
	0.850049	1363.393487	11.772000	-4.860000
	0.953054	1363.399436	11.780000	-4.850000
	1.050060	1363.403005	11.776000	-4.870000
	1.153066	1363.410144	11.784000	-4.840000
	1.308074	1363.416093	11.788000	-4.850000
	1.402080	1363.424422	11.786000	-4.830000
	1.500085	1363.419663	11.814000	-4.940000
	1.600091	1363.423233	11.778000	-4.870000
	1.700097	1363.410145	11.782000	-5.010000
	1.850106	1363.411335	11.784000	-4.890000
	1.950111	1363.399438	11.770000	-5.000000
	2.050117	1363.400627	11.758000	-4.890000
	2.150123	1363.392299	11.776000	-4.970000
	2.250128	1363.400628	11.770000	-4.830000
	2.350134	1363.394679	11.770000	-4.950000
	2.450140	1363.398248	11.776000	-4.870000
	2.550146	1363.399438	11.778000	-4.890000
	2.653152	1363.410147	11.782000	-4.810000
	2.753157	1363.410147	11.782000	-4.810000
	2.850163	1363.404198	11.770000	-4.950000
	2.950169	1363.413717	11.790000	-4.820000
	3.050174	1363.408957	11.774000	-4.940000
	3.150180	1363.414907	11.790000	-4.850000
	3.250185	1363.419666	11.786000	-4.860000
	3.350192	1363.414907	11.792000	-4.940000
	3.450197	1363.423236	11.770000	-4.830000
	3.550203	1363.407769	11.780000	-5.030000
	3.654209	1363.407769	11.782000	-4.900000
	3.752214	1363.407769	11.782000	-4.900000
	3.850220	1363.405389	11.784000	-4.920000
	3.950226	1363.403010	11.792000	-4.920000
	4.050231	1363.410149	11.782000	-4.840000
	4.200240	1363.404200	11.788000	-4.950000
	4.300246	1363.400630	11.762000	-4.930000
	4.400251	1363.400630	11.784000	-4.900000
	4.500257	1363.399441	11.770000	-4.910000
	4.600263	1363.406580	11.778000	-4.840000
	4.700269	1363.408959	11.782000	-4.880000
	4.800274	1363.408959	11.784000	-4.900000
	4.900280	1363.414908	11.796000	-4.850000
	5.000286	1363.413719	11.784000	-4.910000
	5.106292	1363.412529	11.782000	-4.910000
	5.200297	1363.412529	11.782000	-4.910000
	5.300303	1363.417288	11.774000	-4.860000
	5.400309	1363.423237	11.784000	-4.850000
	5.500314	1363.430376	11.782000	-4.840000
	5.600320	1363.431566	11.784000	-4.890000
	5.700326	1363.424427	11.790000	-4.960000
	5.800332	1363.426807	11.786000	-4.880000
	5.900337	1363.418479	11.782000	-4.970000
	6.002343	1363.413719	11.780000	-4.940000
	6.100349	1363.414909	11.790000	-4.890000
	6.250357	1363.412530	11.790000	-4.920000
	6.350363	1363.405391	11.782000	-4.960000
	6.450369	1363.405391	11.782000	-4.960000
	6.500371	1363.400632	11.782000	-4.940000
	6.650380	1363.399442	11.766000	-4.910000
	6.750386	1363.411341	11.750000	-4.800000
	6.850392	1363.417290	11.772000	-4.850000
	6.950397	1363.419669	11.776000	-4.880000
	7.050403	1363.405392	11.766000	-5.020000
	7.150409	1363.408962	11.778000	-4.870000
	7.250414	1363.419670	11.784000	-4.810000
	7.350420	1363.424430	11.790000	-4.860000
	7.456426	1363.424430	11.770000	-4.900000
	7.550432	1363.410153	11.798000	-5.020000
	7.650437	1363.410153	11.798000	-5.020000
	7.750443	1363.414912	11.794000	-4.860000
	7.850449	1363.424431	11.794000	-4.820000
	7.950455	1363.416102	11.780000	-4.970000
	8.050460	1363.408964	11.790000	-4.960000
	8.150466	1363.412533	11.796000	-4.870000
	8.250472	1363.416103	11.786000	-4.870000
	8.350478	1363.422052	11.776000	-4.850000
	8.459484	1363.417293	11.784000	-4.940000
	8.550489	1363.400636	11.790000	-5.040000
	8.650495	1363.400636	11.790000	-5.040000
	8.750500	1363.399446	11.770000	-4.910000
	8.850506	1363.400636	11.792000	-4.890000
	8.950512	1363.399446	11.780000	-4.910000
	9.050518	1363.397067	11.800000	-4.920000
	9.150523	1363.394687	11.788000	-4.920000
	9.250529	1363.400636	11.778000	-4.850000
	9.351535	1363.398257	11.790000	-4.920000
	9.450541	1363.391118	11.796000	-4.960000
	9.550546	1363.400637	11.788000	-4.820000
	9.650552	1363.410156	11.800000	-4.820000
	9.750557	1363.410156	11.800000	-4.820000
	9.850563	1363.406586	11.768000	-4.930000
	9.950569	1363.400637	11.776000	-4.950000
	10.050575	1363.389930	11.786000	-4.990000
	10.150580	1363.382791	11.786000	-4.960000
	10.251586	1363.382791	11.772000	-4.900000
	10.357592	1363.381601	11.776000	-4.910000
	10.450598	1363.376842	11.780000	-4.940000
	10.550603	1363.382791	11.790000	-4.850000
	10.650609	1363.382791	11.790000	-4.850000
	10.750615	1363.376843	11.774000	-4.950000
	10.900623	1363.379222	11.764000	-4.880000
	11.000629	1363.386361	11.784000	-4.840000
	11.100635	1363.393500	11.776000	-4.840000
	11.199640	1363.394690	11.740000	-4.890000
	11.299646	1363.405398	11.784000	-4.810000
	11.399652	1363.405398	11.768000	-4.900000
	11.499658	1363.417297	11.766000	-4.800000
	11.599663	1363.418486	11.746000	-4.890000
	11.702669	1363.418486	11.746000	-4.890000
	11.749672	1363.425625	11.766000	-4.840000
	11.899681	1363.416107	11.770000	-4.980000
	11.999686	1363.414917	11.788000	-4.910000
	12.099692	1363.408969	11.772000	-4.950000
	12.199697	1363.406589	11.776000	-4.920000
	12.299703	1363.406589	11.758000	-4.900000
	12.399709	1363.416108	11.776000	-4.820000
	12.499715	1363.410159	11.784000	-4.950000
	12.599720	1363.417298	11.780000	-4.840000
	12.704727	1363.414918	11.768000	-4.920000
	12.799732	1363.414918	11.768000	-4.920000
	12.899738	1363.408969	11.774000	-4.950000
	12.999743	1363.412539	11.786000	-4.870000
	13.099749	1363.411349	11.796000	-4.910000
	13.199755	1363.407780	11.774000	-4.930000
	13.299760	1363.408969	11.800000	-4.890000
	13.399766	1363.406590	11.780000	-4.920000
	13.499772	1363.405400	11.790000	-4.910000
	13.599778	1363.417299	11.776000	-4.800000
	13.709784	1363.413729	11.778000	-4.930000
	13.800789	1363.407780	11.768000	-4.950000
	13.899795	1363.401831	11.782000	-4.950000
	13.999801	1363.401831	11.782000	-4.950000
	14.099806	1363.397072	11.790000	-4.940000
	14.249815	1363.393503	11.784000	-4.930000
	14.349821	1363.385175	11.776000	-4.970000
	14.449826	1363.404213	11.798000	-4.740000
	14.549832	1363.400643	11.780000	-4.930000
	14.649838	1363.403023	11.790000	-4.880000
	14.749844	1363.403023	11.804000	-4.900000
	14.849849	1363.395884	11.798000	-4.960000
	14.949855	1363.394695	11.796000	-4.910000
	15.050861	1363.400644	11.786000	-4.850000
	15.149867	1363.400644	11.786000	-4.850000
	15.249872	1363.412542	11.778000	-4.800000
	15.349878	1363.411352	11.774000	-4.910000
	15.449883	1363.404214	11.782000	-4.960000
	15.549889	1363.386368	11.764000	-5.050000
	15.649895	1363.382799	11.782000	-4.930000
	15.750901	1363.381609	11.766000	-4.910000
	15.849906	1363.374470	11.798000	-4.960000
	15.949912	1363.378040	11.786000	-4.870000
	16.053918	1363.370901	11.764000	-4.960000
	16.149924	1363.370901	11.764000	-4.960000
	16.249929	1363.369711	11.770000	-4.910000
	16.349935	1363.366142	11.778000	-4.930000
	16.449941	1363.366142	11.780000	-4.900000
	16.549946	1363.373281	11.780000	-4.840000
	16.649952	1363.380420	11.782000	-4.840000
	16.749958	1363.385179	11.780000	-4.860000
	16.849964	1363.391128	11.776000	-4.850000
	16.949969	1363.397077	11.766000	-4.850000
	17.049975	1363.397077	11.766000	-4.850000
	17.149981	1363.393508	11.774000	-4.930000
	17.249987	1363.389938	11.778000	-4.930000
	17.349992	1363.379231	11.774000	-4.990000
	17.449998	1363.369713	11.786000	-4.980000
	17.550004	1363.374472	11.764000	-4.860000
	17.650009	1363.389940	11.770000	-4.770000
	17.750015	1363.392320	11.768000	-4.880000
	17.850021	1363.405408	11.776000	-4.790000
	17.950027	1363.392321	11.778000	-5.010000
	18.050032	1363.392321	11.778000	-5.010000
	18.150038	1363.388751	11.770000	-4.930000
	18.250044	1363.381613	11.782000	-4.960000
	18.352049	1363.381613	11.780000	-4.900000
	18.450055	1363.379233	11.770000	-4.920000
	18.553061	1363.381613	11.774000	-4.880000
	18.650066	1363.382803	11.780000	-4.890000
	18.750072	1363.382803	11.778000	-4.900000
	18.850078	1363.381613	11.768000	-4.910000
	18.952084	1363.381613	11.780000	-4.900000
	19.050089	1363.381613	11.780000	-4.900000
	19.150095	1363.385182	11.770000	-4.870000
	19.250101	1363.383992	11.784000	-4.910000
	19.350107	1363.391131	11.786000	-4.840000
	19.450112	1363.397080	11.778000	-4.850000
	19.550118	1363.392321	11.756000	-4.940000
	19.651124	1363.380424	11.774000	-5.000000
	19.750130	1363.379234	11.800000	-4.910000
	19.854136	1363.381614	11.776000	-4.880000
	19.950141	1363.381614	11.776000	-4.880000
	20.050147	1363.382804	11.782000	-4.890000
	20.150152	1363.386373	11.792000	-4.870000
	20.250158	1363.395891	11.782000	-4.820000
	20.350164	1363.394702	11.790000	-4.910000
	20.450170	1363.392322	11.782000	-4.920000
	20.550175	1363.389943	11.784000	-4.920000
	20.650181	1363.397081	11.774000	-4.840000
	20.750187	1363.382805	11.770000	-5.020000
	20.862193	1363.387564	11.776000	-4.860000
	20.950198	1363.394703	11.766000	-4.840000
	21.050204	1363.394703	11.766000	-4.840000
	21.150209	1363.391133	11.762000	-4.930000
	21.250215	1363.391133	11.772000	-4.900000
	21.350221	1363.381616	11.596000	-4.980000
	21.450227	1363.376857	11.756000	-4.940000
	21.550232	1363.385185	11.724000	-4.830000
	21.650238	1363.702262	11.726000	-2.240000
	21.753244	1363.639202	11.764000	-5.430000
	21.850250	1363.620163	11.702000	-5.060000
	21.950255	1363.620163	11.702000	-5.060000
	22.050261	1363.488123	11.950000	-6.010000
	22.150267	1363.473845	11.584000	-5.020000
	22.250272	1363.494074	11.910000	-4.730000
	22.350278	1363.558344	11.674000	-4.360000
	22.450284	1363.563104	11.828000	-4.860000
	22.550290	1363.505998	11.820000	-5.380000
	22.650295	1363.476254	11.728000	-5.150000
	22.750301	1363.388228	11.924000	-5.640000
	22.850307	1363.125409	11.820000	-7.110000
	22.950313	1363.181331	11.786000	-4.430000
	23.050318	1363.181331	11.786000	-4.430000
	23.150324	1363.220594	11.782000	-4.570000
	23.250329	1363.265808	11.786000	-4.520000
	23.350336	1363.425347	11.698000	-3.560000
	23.450341	1363.421777	12.010000	-4.930000
	23.550347	1363.328998	11.792000	-5.680000
	23.652353	1363.413499	11.710000	-4.190000
	23.750358	1363.344506	12.044000	-5.480000
	23.850364	1363.367113	11.722000	-4.710000
	23.950370	1363.393290	11.730000	-4.680000
	24.050375	1363.393290	11.730000	-4.680000
	24.150381	1363.387342	11.790000	-4.950000
	24.300390	1363.420660	11.782000	-4.620000
	24.400395	1363.413521	11.812000	-4.960000
	24.500401	1363.367126	11.908000	-5.290000
	24.550404	1363.282675	12.150000	-5.610000
	24.700413	1363.389797	11.840000	-4.000000
	24.800418	1363.410025	11.786000	-4.730000
	24.900424	1363.399318	11.776000	-4.990000
	25.000430	1363.373145	11.806000	-5.120000
	25.104436	1363.399322	11.804000	-4.680000
	25.200441	1363.399322	11.804000	-4.680000
	25.300447	1363.357685	12.048000	-5.250000
	25.400453	1363.258965	11.534000	-5.730000
	25.500458	1363.332747	11.750000	-4.280000
	25.600464	1363.394629	11.814000	-4.380000
	25.700470	1363.395818	11.748000	-4.890000
	25.800476	1363.383921	11.820000	-5.000000
	25.900481	1363.313740	11.892000	-5.490000
	26.000487	1363.270916	11.656000	-5.260000
	26.050490	1363.270916	11.656000	-5.260000
	26.200499	1363.392330	11.868000	-3.880000
	26.300504	1363.412558	11.672000	-4.730000
	26.400510	1363.388764	11.776000	-5.100000
	26.500515	1363.384005	11.782000	-4.940000
	26.600521	1363.275769	11.774000	-5.810000
	26.700527	1363.380510	11.590000	-4.020000
	26.800533	1363.321032	11.512000	-5.400000
	26.900538	1363.337690	11.776000	-4.760000
	27.003544	1363.348398	11.762000	-4.810000
	27.100550	1363.348398	11.762000	-4.810000
	27.200556	1363.347208	11.682000	-4.910000
	27.300561	1363.527020	11.900000	-3.390000
	27.403567	1363.412826	11.810000	-5.860000
	27.500573	1363.399739	11.886000	-5.010000
	27.600578	1363.320043	11.794000	-5.570000
	27.700584	1363.328371	11.750000	-4.830000
	27.800590	1363.353358	11.804000	-4.690000
	27.900596	1363.425954	12.024000	-4.290000
	28.002602	1363.247558	11.658000	-6.400000
	28.100607	1363.247558	11.658000	-6.400000
	28.200613	1363.191655	11.810000	-5.370000
	28.300619	1363.259481	11.738000	-4.330000
	28.400624	1363.282087	11.766000	-4.710000
	28.500630	1364.176358	10.784000	2.550000
	28.600636	1364.779236	10.842000	0.140000
	28.699641	1365.319754	10.710000	-0.380000
	28.799647	1365.686376	10.986000	-1.830000
	28.903653	1365.976462	10.834000	-2.470000
	28.999659	1366.219957	10.976000	-2.860000
	29.099664	1366.219957	10.976000	-2.860000
	29.199670	1366.414485	10.792000	-3.270000
	29.299675	1366.589922	10.812000	-3.430000
	29.399682	1366.691336	10.748000	-4.050000
	29.499687	1366.772465	10.838000	-4.220000
	29.599693	1366.704494	10.796000	-5.470000
	29.699698	1366.666333	10.812000	-5.220000
	29.802704	1366.635328	10.844000	-5.160000
	29.913711	1366.606708	10.776000	-5.140000
	29.999716	1366.619827	10.678000	-4.790000
	30.099721	1366.574515	10.614000	-5.280000
	30.199727	1366.574515	10.614000	-5.280000
	30.299733	1366.717718	10.618000	-3.700000
	30.399739	1366.600874	10.868000	-5.880000
	30.499744	1366.596104	10.708000	-4.940000
	30.599750	1366.593718	10.556000	-4.920000
	30.699756	1366.628308	10.484000	-4.610000
	30.805762	1366.563920	10.518000	-5.440000
	30.899767	1366.574654	10.420000	-4.810000
	30.999773	1366.548420	10.460000	-5.120000
	31.099779	1366.525763	10.408000	-5.090000
	31.199784	1366.525763	10.408000	-5.090000
	31.299790	1366.517416	10.400000	-4.970000
	31.399796	1366.482837	10.402000	-5.190000
	31.499802	1366.432761	10.408000	-5.320000
	31.599807	1366.408914	10.418000	-5.100000
	31.699813	1366.345729	10.380000	-5.430000
	31.810819	1366.432804	10.498000	-4.170000
	31.899825	1366.375578	10.418000	-5.380000
	31.999830	1366.308818	10.392000	-5.460000
	32.099836	1366.275437	10.396000	-5.180000
	32.199841	1366.275437	10.396000	-5.180000
	32.351851	1366.222985	10.418000	-5.340000
	32.449856	1366.301699	10.326000	-4.240000
	32.549861	1366.246862	10.468000	-5.360000
	32.649867	1366.156274	10.562000	-5.660000
	32.749873	1366.095484	10.440000	-5.410000
	32.849879	1366.066876	10.414000	-5.140000
	32.949884	1366.035884	10.474000	-5.160000
	33.049890	1365.983441	10.434000	-5.340000
	33.154896	1365.983441	10.434000	-5.340000
	33.251902	1365.960794	10.406000	-5.090000
	33.349907	1365.933380	10.452000	-5.130000
	33.449913	1365.896432	10.478000	-5.210000
	33.549919	1365.898816	10.436000	-4.880000
	33.649924	1365.886897	10.418000	-5.000000
	33.749930	1365.859485	10.422000	-5.130000
	33.852936	1365.813006	10.444000	-5.290000
	33.949942	1365.795129	10.448000	-5.050000
	34.049947	1365.776060	10.480000	-5.060000
	34.151953	1365.747458	10.444000	-5.140000
	34.249959	1365.747458	10.444000	-5.140000
	34.349965	1365.730773	10.458000	-5.040000
	34.449970	1365.727198	10.486000	-4.930000
	34.549976	1365.708130	10.460000	-5.060000
	34.649981	1365.687871	10.330000	-5.070000
	34.749988	1365.685487	10.442000	-4.920000
	34.849993	1365.667612	10.474000	-5.050000
	34.949999	1365.649736	10.464000	-5.050000
	35.050004	1365.643778	10.440000	-4.950000
	35.156011	1365.637819	10.472000	-4.950000
	35.250016	1365.628285	10.464000	-4.980000
	35.350022	1365.635436	10.456000	-4.840000
	35.450027	1365.635436	10.456000	-4.840000
	35.550033	1365.633052	10.446000	-4.920000
	35.650039	1365.642587	10.464000	-4.820000
	35.750045	1365.633053	10.456000	-4.980000
	35.850050	1365.615178	10.452000	-5.050000
	35.950056	1365.612795	10.492000	-4.920000
	36.053062	1365.597303	10.490000	-5.030000
	36.150067	1365.597303	10.490000	-5.030000
	36.250073	1365.571088	10.462000	-5.120000
	36.350079	1365.566321	10.454000	-4.940000
	36.453085	1365.569896	10.468000	-4.870000
	36.550090	1365.557980	10.468000	-5.000000
	36.650096	1365.548447	10.452000	-4.980000
	36.750102	1365.540106	10.472000	-4.970000
	36.850108	1365.531764	10.472000	-4.970000
	36.950113	1365.524614	10.470000	-4.960000
	37.061120	1365.523423	10.466000	-4.910000
	37.150125	1365.523423	10.466000	-4.910000
	37.250130	1365.526998	10.460000	-4.870000
	37.350136	1365.528189	10.484000	-4.890000
	37.450142	1365.525806	10.464000	-4.920000
	37.550148	1365.521040	10.440000	-4.940000
	37.650153	1365.517465	10.486000	-4.930000
	37.750159	1365.500783	10.482000	-5.040000
	37.850165	1365.491250	10.446000	-4.980000
	37.953171	1365.500783	10.476000	-4.820000
	38.050176	1365.511509	10.502000	-4.810000
	38.150182	1365.511509	10.502000	-4.810000
	38.250187	1365.487678	10.490000	-5.100000
	38.350194	1365.473379	10.470000	-5.020000
	38.450199	1365.482912	10.466000	-4.820000
	38.550205	1365.482912	10.494000	-4.900000
	38.651211	1365.463848	10.470000	-5.060000
	38.750216	1365.460273	10.456000	-4.930000
	38.850222	1365.486491	10.488000	-4.680000
	38.950228	1365.475767	10.484000	-4.990000
	39.050233	1365.463851	10.452000	-5.000000
	39.150239	1365.463851	10.452000	-5.000000
	39.250245	1365.474576	10.444000	-4.810000
	39.350251	1365.482917	10.464000	-4.830000
	39.500259	1365.475768	10.476000	-4.960000
	39.600265	1365.469810	10.466000	-4.950000
	39.700271	1365.469810	10.456000	-4.900000
	39.800276	1365.469810	10.480000	-4.900000
	39.900282	1365.466235	10.470000	-4.930000
	40.000288	1365.457894	10.476000	-4.970000
	40.100293	1365.467427	10.478000	-4.820000
	40.200299	1365.459086	10.484000	-4.970000
	40.300305	1365.454320	10.462000	-4.940000
	40.412311	1365.451937	10.466000	-4.920000
	40.500316	1365.451937	10.466000	-4.920000
	40.601322	1365.460278	10.468000	-4.830000
	40.700328	1365.456704	10.476000	-4.930000
	40.800333	1365.444788	10.472000	-5.000000
	40.900339	1365.457896	10.460000	-4.790000
	41.000345	1365.473388	10.474000	-4.770000
	41.100350	1365.469813	10.472000	-4.930000
	41.200356	1365.469813	10.456000	-4.900000
	41.304362	1365.478155	10.470000	-4.830000
	41.400368	1365.466239	10.482000	-5.000000
	41.500373	1365.466239	10.482000	-5.000000
	41.600379	1365.453132	10.482000	-5.010000
	41.700385	1365.447174	10.534000	-4.950000
	41.800391	1365.448366	10.470000	-4.890000
	41.900396	1365.579519	10.880000	-3.800000
	42.000402	1365.558070	10.464000	-5.080000
	42.100408	1365.536621	10.462000	-5.080000
	42.202414	1365.492536	10.472000	-5.270000
	42.311420	1365.479429	10.514000	-5.010000
	42.400425	1365.457982	10.446000	-5.080000
	42.500431	1365.457982	10.446000	-5.080000
	42.600436	1365.440109	10.470000	-5.050000
	42.702442	1365.388880	10.508000	-5.330000
	42.800448	1365.374583	10.500000	-5.020000
	42.900454	1365.373391	10.430000	-4.910000
	43.000459	1365.335268	10.504000	-5.220000
	43.100465	1364.901674	10.294000	-8.540000
	43.204471	1364.950519	10.456000	-4.490000
	43.300477	1364.963622	10.572000	-4.790000
	43.400482	1364.915983	10.382000	-5.300000
	43.500488	1364.915983	10.382000	-5.300000
	43.600493	1364.911219	10.548000	-4.940000
	43.700500	1364.997010	10.490000	-4.180000
	43.800505	1365.044667	10.432000	-4.500000
	43.900511	1365.101859	10.432000	-4.420000
	44.000516	1365.141177	10.468000	-4.570000
	44.100522	1365.113780	10.486000	-5.130000
	44.210528	1365.157865	10.430000	-4.530000
	44.300534	1365.228174	10.462000	-4.310000
	44.400539	1365.217452	10.334000	-4.990000
	44.501545	1365.217452	10.334000	-4.990000
	44.600551	1365.253198	10.502000	-4.600000
	44.750559	1365.267496	10.448000	-4.780000
	44.850565	1365.298476	10.446000	-4.640000
	44.950571	1365.335417	10.454000	-4.590000
	45.050577	1365.354482	10.452000	-4.740000
	45.150582	1365.384273	10.436000	-4.650000
	45.250588	1365.406913	10.454000	-4.710000
	45.350594	1365.429555	10.468000	-4.710000
	45.450600	1365.427172	10.462000	-4.920000
	45.550605	1365.526114	10.618000	-4.070000
	45.650611	1365.523731	10.406000	-4.920000
	45.750617	1365.521347	10.450000	-4.920000
	45.850622	1365.521347	10.450000	-4.920000
	45.950628	1365.513006	10.438000	-4.970000
	46.050634	1365.484410	10.412000	-5.140000
	46.150640	1365.510628	10.464000	-4.680000
	46.249645	1365.567839	10.378000	-4.420000
	46.350651	1365.579757	10.432000	-4.800000
	46.449656	1365.592866	10.440000	-4.790000
	46.559663	1365.561885	10.474000	-5.160000
	46.649668	1365.491592	10.408000	-5.490000
	46.749674	1365.523769	10.438000	-4.630000
	46.849679	1365.523769	10.438000	-4.630000
	46.949685	1365.561908	10.474000	-4.580000
	47.049691	1365.541651	10.424000	-5.070000
	47.149697	1365.540459	10.450000	-4.910000
	47.249702	1365.551184	10.458000	-4.810000
	47.349708	1365.540460	10.450000	-4.990000
	47.452714	1365.538076	10.424000	-4.920000
	47.549719	1365.544035	10.452000	-4.850000
	47.649725	1365.535693	10.460000	-4.970000
	47.749731	1365.535693	10.460000	-4.970000
	47.849737	1365.530927	10.432000	-4.940000
	47.949742	1365.553570	10.410000	-4.710000
	48.049748	1365.579790	10.432000	-4.680000
	48.149754	1365.561915	10.422000	-5.050000
	48.249760	1365.559532	10.430000	-4.920000
	48.349765	1365.592903	10.420000	-4.620000
	48.454772	1365.594095	10.440000	-4.890000
	48.549777	1365.565497	10.426000	-5.140000
	48.649783	1365.603636	10.444000	-4.580000
	48.749788	1365.603636	10.444000	-4.580000
	48.849794	1365.627473	10.434000	-4.700000
	48.999803	1365.608406	10.434000	-5.060000
	49.099808	1365.609598	10.408000	-4.890000
	49.199814	1365.623900	10.442000	-4.780000
	49.299819	1365.611983	10.438000	-5.000000
	49.399826	1365.616750	10.404000	-4.860000
	49.499831	1365.633435	10.416000	-4.760000
	49.599837	1365.626285	10.036000	-4.960000
	49.699842	1365.671579	10.530000	-4.520000
	49.800848	1365.678730	10.420000	-4.840000
	49.906854	1365.678730	10.446000	-4.900000
	49.999860	1365.678730	10.446000	-4.900000
	50.099865	1365.349940	10.328000	-7.660000
	50.199871	1365.416682	10.430000	-4.340000
	50.299877	1365.460777	10.466000	-4.530000
	50.399883	1365.502490	10.492000	-4.550000
	50.499888	1365.529900	10.380000	-4.670000
	50.599894	1365.560886	10.464000	-4.640000
	50.699900	1365.578763	10.462000	-4.750000
	50.800906	1365.571613	10.434000	-4.960000
	50.899911	1365.571613	10.434000	-4.960000
	50.999917	1365.607368	10.430000	-4.600000
	51.099923	1365.614519	10.426000	-4.840000
	51.199928	1365.622861	10.388000	-4.830000
	51.299934	1365.643122	10.442000	-4.730000
	51.399940	1365.649081	10.438000	-4.850000
	51.499946	1365.625248	10.370000	-5.100000
	51.599951	1365.651469	10.404000	-4.680000
	51.699957	1365.644318	10.470000	-4.960000
	51.805963	1365.652661	10.454000	-4.830000
	51.899969	1365.669347	10.406000	-4.760000
	51.999974	1365.669347	10.406000	-4.760000
	52.099980	1365.680073	10.432000	-4.810000
	52.199986	1365.656239	10.414000	-5.100000
	52.299991	1365.645514	10.432000	-4.990000
	52.399997	1365.657432	10.462000	-4.800000
	52.500003	1365.639557	10.432000	-5.050000
	52.600008	1365.646707	10.424000	-4.840000
	52.700014	1365.653858	10.434000	-4.840000
	52.800020	1365.650283	10.434000	-4.930000
	52.900025	1365.650283	10.434000	-4.930000
	53.000031	1365.663393	10.422000	-4.790000
	53.100037	1365.647901	10.444000	-5.030000
	53.200043	1365.646709	10.440000	-4.910000
	53.300048	1365.666970	10.402000	-4.730000
	53.400054	1365.687232	10.418000	-4.730000
	53.500060	1365.661015	10.414000	-5.120000
	53.600066	1365.646715	10.416000	-5.020000
	53.706072	1365.649098	10.426000	-4.880000
	53.800077	1365.649098	10.426000	-4.880000
	53.900083	1365.681279	10.446000	-4.630000
	54.000089	1365.664595	10.408000	-5.040000
	54.100094	1365.649103	10.400000	-5.030000
	54.200100	1365.608589	10.340000	-5.240000
	54.300106	1365.613356	10.386000	-4.860000
	54.400111	1365.591907	10.398000	-5.080000
	54.500117	1365.618127	10.432000	-4.680000
	54.600123	1365.615744	10.386000	-4.920000
	54.700129	1365.693231	10.330000	-4.250000
	54.800134	1365.728990	10.514000	-4.600000
	54.900140	1365.723031	10.436000	-4.950000
	55.000146	1365.723031	10.436000	-4.950000
	55.159155	1365.752830	10.396000	-4.650000
	55.250160	1365.745679	10.422000	-4.960000
	55.350166	1365.744487	10.360000	-4.910000
	55.450171	1365.659888	10.354000	-5.610000
	55.550177	1365.705183	10.448000	-4.520000
	55.650183	1365.811304	10.416000	-4.010000
	55.750188	1365.843489	10.416000	-4.630000
	55.850194	1365.802969	10.442000	-5.240000
	55.950200	1365.847077	10.280000	-4.530000
	56.051206	1365.830391	10.414000	-5.040000
	56.150211	1365.807746	10.424000	-5.090000
	56.250217	1365.813706	10.378000	-4.850000
	56.350223	1365.804171	10.376000	-4.980000
	56.450229	1365.804171	10.376000	-4.980000
	56.550234	1365.789869	10.342000	-5.020000
	56.700243	1365.807748	10.384000	-4.750000
	56.800249	1365.756506	10.344000	-5.330000
	56.900254	1365.800612	10.310000	-4.530000
	57.000260	1365.906739	10.434000	-4.010000
	57.100266	1365.881710	10.382000	-5.110000
	57.200272	1365.855489	10.370000	-5.120000
	57.300277	1365.848338	10.384000	-4.960000
	57.400283	1365.819734	10.380000	-5.140000
	57.504289	1365.824502	10.384000	-4.860000
	57.600295	1365.824502	10.384000	-4.860000
	57.700300	1365.830462	10.370000	-4.850000
	57.800306	1365.813776	10.356000	-5.040000
	57.900311	1365.675567	10.218000	-6.060000
	58.000317	1365.686293	10.372000	-4.810000
	58.100323	1365.730397	10.356000	-4.530000
	58.200329	1365.731589	10.438000	-4.890000
	58.300334	1365.710138	10.340000	-5.080000
	58.400340	1365.728016	10.374000	-4.750000
	58.510346	1365.730400	10.390000	-4.880000
	58.600352	1365.730400	10.390000	-4.880000
	58.700357	1365.736359	10.370000	-4.850000
	58.800363	1365.769735	10.368000	-4.620000
	58.900369	1365.757816	10.396000	-5.000000
	59.003375	1365.780464	10.336000	-4.710000
	59.100380	1365.770929	10.246000	-4.980000
	59.200386	1365.767353	10.284000	-4.930000
	59.300392	1365.798345	10.366000	-4.640000
	59.403398	1365.842453	10.374000	-4.530000
	59.500403	1365.824575	10.150000	-5.050000
	59.600409	1365.824575	10.388000	-4.900000
	59.700415	1365.824575	10.388000	-4.900000
	59.800420	1365.828151	10.342000	-4.870000
	59.950429	1365.840071	10.342000	-4.800000
	60.050435	1365.822193	10.386000	-5.050000
	60.150440	1365.823385	10.350000	-4.890000
	60.250446	1365.848417	10.370000	-4.690000
	60.350451	1365.806706	10.312000	-5.250000
	60.450458	1365.825777	10.360000	-4.740000
	60.550463	1365.830545	10.378000	-4.860000
	60.650469	1365.843657	10.268000	-4.790000
	60.750474	1365.863921	10.352000	-4.730000
	60.851480	1365.856769	10.350000	-4.960000
	60.950486	1365.856769	10.350000	-4.960000
	61.050492	1365.865113	10.328000	-4.830000
	61.150497	1365.863921	10.380000	-4.910000
	61.250503	1366.100224	10.204000	-2.920000
	61.400512	1366.064464	10.326000	-5.200000
	61.500517	1366.006061	10.376000	-5.390000
	61.600523	1365.975071	10.406000	-5.160000
	61.700529	1365.954808	10.338000	-5.070000
	61.800535	1365.907134	10.310000	-5.300000
	61.900540	1365.919055	10.338000	-4.800000
	62.000546	1365.884491	10.350000	-5.190000
	62.100552	1365.848737	10.320000	-5.200000
	62.200558	1365.843969	10.372000	-4.940000
	62.250560	1365.843969	10.372000	-4.940000
	62.400569	1365.835626	10.288000	-4.970000
	62.500575	1365.830858	10.328000	-4.940000
	62.600580	1365.808214	10.340000	-5.090000
	62.700586	1365.801062	10.300000	-4.960000
	62.850595	1365.779610	10.386000	-5.080000
	62.950601	1365.789145	10.056000	-4.820000
	63.050606	1365.810601	10.330000	-4.720000
	63.150612	1365.970437	10.290000	-3.560000
	63.250618	1365.938256	10.292000	-5.170000
	63.350623	1365.922761	10.304000	-5.030000
	63.450629	1365.898923	10.304000	-5.100000
	63.550635	1366.236943	6.008000	-2.070000
	63.649641	1366.236943	6.008000	-2.070000
	63.749646	1379.914912	0.154000	57.420000
	63.849652	1427.399452	0.076000	75.410000
	63.949657	1442.350197	0.142000	58.420000
	64.049663	1457.984105	0.164000	59.160000
	64.149669	1482.593762	0.174000	67.280000
	64.249675	1529.104040	0.126000	74.630000
	64.349680	1545.305179	0.212000	58.670000
	64.449686	1560.039294	0.184000	56.310000
	64.549692	1579.695370	0.104000	62.220000
	64.655698	1604.861819	0.174000	66.370000
	64.749703	1604.861819	0.174000	66.370000
	64.849709	1628.073088	0.174000	64.750000
	64.949715	1644.408798	0.232000	57.470000
	65.049720	1665.454468	0.166000	62.520000
	65.149726	1695.203511	0.150000	68.130000
	65.249732	NaN	0.150000	84.670000
	65.349738	NaN	0.164000	68.400000
	65.449743	NaN	0.158000	66.150000
	65.549749	NaN	0.192000	66.100000
	65.652755	NaN	0.196000	68.860000
	65.749761	NaN	0.182000	69.990000
	65.849766	NaN	0.182000	69.990000
	65.949772	NaN	0.142000	64.860000
	66.049778	NaN	0.168000	72.010000
	66.155784	NaN	0.168000	69.760000
	66.249789	NaN	0.168000	79.220000
	66.349795	NaN	0.160000	72.010000
	66.449800	NaN	0.168000	77.180000
	66.555807	NaN	0.140000	71.820000
	66.649812	NaN	0.168000	68.640000
	66.749818	NaN	0.168000	68.640000
	66.849823	NaN	0.166000	70.280000
	66.949829	NaN	0.156000	64.760000
	67.049835	NaN	0.162000	68.270000
	67.149840	NaN	0.166000	77.770000
	67.249846	NaN	0.152000	67.580000
	67.349852	NaN	0.172000	60.220000
	67.449858	NaN	0.178000	61.470000
	67.563864	NaN	0.166000	57.270000
	67.649869	NaN	0.212000	59.990000
	67.749875	NaN	0.174000	64.900000
	67.849881	NaN	0.174000	64.900000
	67.949886	NaN	0.174000	68.140000
	68.049892	NaN	0.176000	67.730000
	68.149898	NaN	0.188000	56.890000
	68.249904	NaN	0.206000	57.970000
	68.349909	NaN	0.162000	77.210000
	68.455915	NaN	0.138000	68.820000
	68.549921	NaN	0.166000	70.080000
	68.649926	NaN	0.144000	77.390000
	68.749932	NaN	0.158000	59.900000
	68.849938	NaN	0.158000	59.900000
	68.949944	NaN	0.164000	77.950000
	69.049949	NaN	0.158000	76.740000
	69.149955	NaN	0.172000	69.440000
	69.249961	NaN	0.170000	74.600000
	69.349967	NaN	0.138000	67.130000
	69.459973	NaN	0.160000	69.320000
	69.549978	NaN	0.154000	72.370000
	69.649983	NaN	0.160000	77.360000
	69.749990	NaN	0.160000	77.360000
	69.851995	NaN	0.156000	74.910000
	70.000004	NaN	0.156000	79.760000
	70.100009	NaN	0.150000	76.150000
	70.200015	NaN	0.172000	69.560000
	70.300021	NaN	0.172000	77.650000
	70.400026	NaN	0.160000	68.880000
	70.500032	NaN	0.156000	66.710000
	70.601038	NaN	0.158000	80.300000
	70.700044	NaN	0.162000	67.740000
	70.803050	NaN	0.162000	67.740000
	70.852052	NaN	0.172000	76.530000
	71.000061	NaN	0.156000	76.410000
	71.100067	NaN	0.172000	72.770000
	71.200072	NaN	0.166000	74.810000
	71.300078	NaN	0.156000	69.830000
	71.400084	NaN	0.180000	70.350000
	71.500089	NaN	0.170000	68.750000
	71.600095	NaN	0.132000	69.200000
	71.700101	NaN	0.156000	73.340000
	71.804107	NaN	0.168000	77.510000
	71.900112	NaN	0.168000	77.510000
	72.000118	NaN	0.146000	75.870000
	72.100124	NaN	0.178000	67.480000
	72.200130	NaN	0.156000	77.590000
	72.300135	NaN	NaN	70.850000
	72.400141	NaN	NaN	70.850000
	72.500146	NaN	NaN	NaN
	72.600152	NaN	NaN	NaN
	72.701158	NaN	NaN	NaN
	72.803164	NaN	NaN	NaN
	72.900169	NaN	NaN	NaN
	73.000175	NaN	NaN	NaN
	73.100181	NaN	NaN	NaN
	73.200187	NaN	NaN	NaN
	73.300192	NaN	NaN	NaN
	73.400198	NaN	NaN	NaN
	73.500204	NaN	NaN	NaN
	73.600210	NaN	NaN	NaN
	73.704216	NaN	NaN	NaN
	73.800221	NaN	NaN	NaN
	73.900227	NaN	NaN	NaN
	74.000232	NaN	NaN	NaN
	74.100238	NaN	NaN	NaN
	74.200244	NaN	NaN	NaN
	74.300250	NaN	NaN	NaN
	74.400255	NaN	NaN	NaN
	74.500261	NaN	NaN	NaN
	74.600266	NaN	NaN	NaN
	74.711273	NaN	NaN	NaN
	74.800278	NaN	NaN	NaN
	74.900284	NaN	NaN	NaN
	75.000289	NaN	NaN	NaN
	75.100295	NaN	NaN	NaN
	75.250304	NaN	NaN	NaN
	75.350309	NaN	NaN	NaN
	75.450315	NaN	NaN	NaN
	75.550321	NaN	NaN	NaN
	75.650327	NaN	NaN	NaN
	75.750332	NaN	NaN	NaN
	75.850338	NaN	NaN	NaN
	75.951344	NaN	NaN	NaN
	76.050350	NaN	NaN	NaN
	76.150355	NaN	NaN	NaN
	76.250361	NaN	NaN	NaN
	76.350367	NaN	NaN	NaN
	76.450373	NaN	NaN	NaN
	76.550378	NaN	NaN	NaN
	76.650384	NaN	NaN	NaN
	76.750390	NaN	NaN	NaN
	76.850395	NaN	NaN	NaN
	76.951401	NaN	NaN	NaN
	77.055407	NaN	NaN	NaN
	77.150413	NaN	NaN	NaN
	77.250418	NaN	NaN	NaN
	77.350424	NaN	NaN	NaN
	77.450430	NaN	NaN	NaN
	77.550436	NaN	NaN	NaN
	77.652442	NaN	NaN	NaN
	77.750447	NaN	NaN	NaN
	77.850452	NaN	NaN	NaN
	77.951458	NaN	NaN	NaN
	78.062465	NaN	NaN	NaN
	78.150470	NaN	NaN	NaN
	78.250475	NaN	NaN	NaN
	78.350481	NaN	NaN	NaN
	78.450487	NaN	NaN	NaN
	78.600495	NaN	NaN	NaN
	78.700501	NaN	NaN	NaN
	78.801507	NaN	NaN	NaN
	78.900513	NaN	NaN	NaN
	79.000518	NaN	NaN	NaN
	79.100524	NaN	NaN	NaN
	79.200530	NaN	NaN	NaN
	79.300536	NaN	NaN	NaN
	79.401541	NaN	NaN	NaN
	79.500547	NaN	NaN	NaN
	79.600553	NaN	NaN	NaN
	79.700559	NaN	NaN	NaN
	79.800564	NaN	NaN	NaN
	79.900570	NaN	NaN	NaN
	80.000576	NaN	NaN	NaN
	80.100581	NaN	NaN	NaN
	80.200587	1460.965014	0.116000	79.560000
	80.300593	1489.709617	0.144000	69.490000
	80.350595	1528.438875	0.158000	72.820000
	80.500604	1558.735467	0.136000	69.590000
	80.600610	1589.888088	0.182000	69.700000
	80.700616	1651.027665	0.142000	76.260000
	80.800622	1698.849838	0.148000	73.900000
	80.900627	1729.216117	0.186000	68.140000
	81.000633	1757.973118	0.184000	67.050000
	81.100638	1802.530060	0.146000	72.550000
	81.199644	1830.669261	0.196000	66.040000
	81.301650	1862.351141	0.174000	67.660000
	81.399656	1862.351141	0.174000	67.660000
	81.499661	1899.712095	0.218000	69.750000
	81.599667	1933.553188	0.184000	68.090000
	81.699673	1974.789287	0.174000	70.540000
	81.799678	2026.178505	0.186000	72.830000
	81.899684	2056.851315	0.192000	65.530000
	81.999690	2087.914439	0.200000	65.490000
	82.099696	2114.976125	0.224000	62.760000
	82.199701	2178.027580	0.208000	74.170000
	82.300707	2207.675535	0.218000	63.670000
	82.399713	2257.317638	0.234000	71.190000
	82.499719	2300.700058	0.218000	69.170000
	82.599724	2300.700058	0.218000	69.170000
	82.699730	2337.882880	0.222000	66.600000
	82.849739	2403.861655	0.190000	73.650000
	82.949744	2434.133973	0.312000	62.210000
	83.049750	2455.430987	0.318000	54.280000
	83.149755	2471.013494	0.368000	45.990000
	83.249762	2506.813700	0.266000	64.780000
	83.349767	2528.911051	0.354000	54.460000
	83.449773	2541.742206	0.648000	39.800000
	83.549778	2500.945915	0.442000	-78.900000
	83.649784	2422.404492	0.432000	-87.230000
	83.699787	2422.404492	0.432000	-87.230000
	83.849796	2339.669748	0.444000	-87.950000
	83.949801	2346.079117	0.590000	23.490000
	84.050807	2358.324191	0.540000	40.590000
	84.149813	2367.989240	0.542000	33.870000
	84.299821	2375.502313	0.582000	27.090000
	84.399827	2382.780099	0.582000	26.210000
	84.499833	2386.781291	0.624000	13.520000
	84.599839	2388.149118	0.706000	1.620000
	84.699844	2386.307716	0.652000	-13.700000
	84.799850	2381.570792	0.700000	-26.750000
	84.899856	2372.230835	0.648000	-43.560000
	84.999862	2352.133748	0.580000	-65.420000
	85.100867	2324.182709	0.572000	-73.300000
	85.199873	2281.169894	0.524000	-81.110000
	85.299879	2281.169894	0.524000	-81.110000
	85.399884	2225.317329	0.540000	-84.720000
	85.499890	2182.249390	0.540000	-81.750000
	85.599896	2106.800847	0.586000	-88.050000
	85.699902	2012.593816	0.574000	-89.900000
	85.799907	1944.352990	0.702000	-87.890000
	85.899913	1876.208436	0.776000	-88.160000
	85.999919	1813.049007	0.872000	-87.830000
	86.109925	1755.138573	0.984000	-87.380000
	86.199930	1705.327373	1.112000	-86.280000
	86.299936	1705.327373	1.112000	-86.280000
	86.399941	1657.894065	1.270000	-86.080000
	86.499948	1614.096692	1.456000	-85.550000
	86.599953	1576.315948	1.730000	-84.200000
	86.701959	1543.772971	1.990000	-82.630000
	86.799964	1516.746399	2.338000	-80.280000
	86.899970	1493.369706	2.724000	-78.220000
	86.999976	1473.269478	3.198000	-75.780000
	87.113983	1456.270331	3.676000	-72.680000
	87.199987	1441.871715	4.268000	-69.220000
	87.299993	1441.871715	4.268000	-69.220000
	87.399999	1429.521857	4.938000	-65.700000
	87.500005	1419.372526	5.592000	-60.710000
	87.650013	1411.044729	6.340000	-55.300000
	87.750019	1404.026205	6.996000	-50.470000
	87.850025	1398.133122	7.604000	-45.510000
	87.950030	1393.196509	8.160000	-40.610000
	88.050036	1389.061515	8.602000	-35.970000
	88.150042	1385.625029	9.002000	-31.510000
	88.250048	1382.657606	9.292000	-28.310000
	88.350053	1380.274891	9.508000	-24.070000
	88.452059	1380.274891	9.508000	-24.070000
	88.550065	1378.340837	9.666000	-20.660000
	88.650070	1376.686090	9.772000	-18.480000
	88.750076	1375.375535	9.948000	-15.730000
	88.852082	1374.260103	9.920000	-14.150000
	88.950088	1373.408104	9.954000	-11.990000
	89.050093	1372.697882	10.030000	-10.820000
	89.150099	1372.120343	10.056000	-9.720000
	89.250105	1371.610258	10.084000	-9.160000
	89.352110	1371.205814	10.038000	-8.280000
	89.457117	1370.891248	10.038000	-7.530000
	89.550122	1370.618612	10.028000	-7.180000
	89.650127	1370.442861	9.938000	-6.370000
	89.750134	1370.442861	9.938000	-6.370000
	89.850139	1370.252790	10.098000	-6.490000
	90.000148	1370.133253	10.070000	-5.900000
	90.100153	1369.962344	10.068000	-6.330000
	90.200159	1369.774729	10.108000	-6.470000
	90.250162	1369.622978	10.138000	-6.170000
	90.400170	1369.395991	10.166000	-6.800000
	90.500176	1369.182179	10.110000	-6.690000
	90.600182	1369.063930	10.150000	-5.890000
	90.700188	1369.210984	9.758000	-3.670000
	90.750190	1369.061684	10.044000	-6.150000
	90.850196	1369.061684	10.044000	-6.150000
	91.000205	1368.847924	10.380000	-6.690000
	91.100211	1368.412019	10.234000	-8.550000
	91.200216	1367.969082	10.314000	-8.610000
	91.300222	1367.611090	10.280000	-7.900000
	91.400228	1367.329562	10.274000	-7.260000
	91.500233	1367.166158	10.204000	-6.270000
	91.600239	1366.980118	10.306000	-6.460000
	91.700245	1366.764299	10.320000	-6.710000
	91.802250	1366.606922	10.316000	-6.220000
	91.900256	1366.480552	10.324000	-5.960000
	92.000262	1366.432860	10.350000	-5.300000
	92.100268	1366.432860	10.350000	-5.300000
	92.200274	1366.342260	10.314000	-5.660000
	92.300279	1366.256432	10.332000	-5.620000
	92.400285	1366.147968	10.424000	-5.810000
	92.500290	1366.105056	10.310000	-5.260000
	92.600296	1366.071679	10.296000	-5.180000
	92.700302	1366.020427	10.246000	-5.330000
	92.809308	1365.993012	10.250000	-5.130000
	92.900313	1365.982283	10.284000	-4.990000
	93.000319	1365.963212	10.436000	-5.060000
	93.100325	1365.963212	10.436000	-5.060000
	93.200331	1365.941757	10.260000	-5.080000
	93.350339	1365.977522	10.132000	-4.600000
	93.450345	1365.966794	10.304000	-4.990000
	93.550351	1365.954875	10.218000	-5.000000
	93.650356	1365.942955	10.256000	-5.000000
	93.750362	1365.944147	10.296000	-4.890000
	93.850368	1365.927460	10.312000	-5.040000
	93.950374	1365.889321	10.310000	-5.220000
	94.050379	1365.951319	10.534000	-4.380000
	94.150385	1365.939399	10.342000	-5.000000
	94.252391	1365.903643	10.336000	-5.200000
	94.350396	1365.903643	10.336000	-5.200000
	94.450402	1365.882189	10.314000	-5.080000
	94.550408	1365.968042	10.170000	-4.180000
	94.650414	1365.962082	10.324000	-4.950000
	94.750419	1365.934668	10.306000	-5.130000
	94.850425	1365.901295	10.276000	-5.180000
	94.964431	1365.907255	10.284000	-4.850000
	95.050436	1365.904871	10.308000	-4.920000
	95.154442	1365.883417	10.322000	-5.080000
	95.250448	1365.882225	10.284000	-4.910000
	95.350453	1365.882225	10.284000	-4.910000
	95.451459	1365.876266	10.298000	-4.950000
	95.550465	1365.873882	10.368000	-4.920000
	95.650471	1365.946613	9.940000	-4.290000
	95.750476	1366.093332	10.164000	-3.670000
	95.850482	1366.226934	10.206000	-3.780000
	95.950488	1366.373683	10.222000	-3.670000
	96.050494	1366.457180	10.180000	-4.200000
	96.153500	1366.566939	10.164000	-3.980000
	96.250505	1366.566939	10.164000	-3.980000
	96.350511	1366.568132	10.292000	-4.890000
	96.450517	1366.603914	10.218000	-4.600000
	96.550522	1366.720849	10.134000	-3.920000
	96.700531	1366.781691	10.222000	-4.390000
	96.800537	1366.930889	9.050000	-3.650000
	96.900542	1366.848601	9.518000	-5.590000
	97.000548	1367.429728	9.050000	-0.050000
	97.100554	1367.209068	10.386000	-6.750000
	97.200560	1366.955053	10.266000	-7.030000
	97.300565	1366.738046	10.310000	-6.720000
	97.400571	1366.569944	10.282000	-6.310000
	97.501576	1366.473375	10.256000	-5.710000
	97.600582	1366.473375	10.256000	-5.710000
	97.700588	1366.349400	10.380000	-5.940000
	97.800594	1366.203987	10.362000	-6.120000
	97.901599	1366.107444	10.364000	-5.710000
	98.000605	1366.007332	10.438000	-5.740000
	98.100611	1365.886974	10.420000	-5.910000
	98.200616	1365.784496	10.386000	-5.760000
	98.300622	1365.780921	10.710000	-4.930000
	98.402628	1365.736828	10.494000	-5.270000
	98.506634	1365.701077	10.448000	-5.200000
	98.600639	1365.699886	10.504000	-4.910000
	98.699645	1365.699886	10.504000	-4.910000
	98.799651	1365.958875	10.406000	-2.730000
	98.899657	1365.892136	10.312000	-5.460000
	98.999662	1365.848040	10.384000	-5.270000
	99.099668	1365.789646	10.452000	-5.390000
	99.199674	1365.752703	10.436000	-5.210000
	99.299679	1365.734826	10.448000	-5.050000
	99.399685	1365.716950	10.460000	-5.050000
	99.499691	1365.694307	10.512000	-5.090000
	99.599697	1365.672856	10.438000	-5.080000
	99.699702	1365.670473	10.432000	-4.920000
	99.799708	1365.670473	10.432000	-4.920000
	99.899714	1365.669281	10.434000	-4.910000
	100.049722	1365.650214	10.468000	-5.060000
	100.149728	1365.602551	10.454000	-5.300000
	100.249734	1365.523918	10.478000	-5.560000
	100.349740	1365.544177	10.512000	-4.730000
	100.449745	1365.519154	10.464000	-5.110000
	100.549751	1365.492941	10.486000	-5.120000
	100.649757	1365.450049	10.518000	-5.260000
	100.749763	1365.416688	10.680000	-5.180000
	100.852768	1365.552611	10.572000	-3.760000
	100.949774	1365.522822	10.486000	-5.150000
	101.052780	1365.522822	10.486000	-5.150000
	101.149786	1365.494225	10.496000	-5.140000
	101.249791	1365.458481	10.518000	-5.200000
	101.349797	1365.465631	10.680000	-4.840000
	101.499805	1365.440609	10.510000	-5.110000
	101.599811	1365.415589	10.460000	-5.110000
	101.699817	1365.323865	10.620000	-5.670000
	101.800822	1365.332205	10.540000	-4.830000
	101.899828	1365.316717	10.498000	-5.030000
	101.999834	1365.302420	10.496000	-5.020000
	102.099840	1365.295271	10.528000	-4.960000
	102.200845	1365.315528	10.484000	-4.730000
	102.300851	1365.340551	10.482000	-4.690000
	102.399857	1365.340551	10.482000	-4.690000
	102.499863	1365.340551	10.500000	-4.900000
	102.599868	1365.339359	10.496000	-4.910000
	102.699874	1365.325062	10.468000	-5.020000
	102.799880	1365.325062	10.454000	-4.900000
	102.899885	1365.323871	10.472000	-4.910000
	102.999891	1365.345319	10.466000	-4.720000
	103.099897	1365.342936	10.474000	-4.920000
	103.199903	1365.348893	10.458000	-4.850000
	103.311909	1365.336979	10.418000	-5.000000
	103.399914	1365.336979	10.418000	-5.000000
	103.499920	1365.362003	10.450000	-4.690000
	103.599926	1365.370343	10.458000	-4.830000
	103.699931	1365.373918	10.452000	-4.870000
	103.799937	1365.381067	10.460000	-4.840000
	103.899942	1365.369153	10.432000	-5.000000
	103.999949	1365.347707	10.440000	-5.080000
	104.099954	1365.353665	10.434000	-4.850000
	104.203960	1365.365580	10.436000	-4.800000
	104.299965	1365.366772	10.450000	-4.890000
	104.399971	1365.366772	10.450000	-4.890000
	104.499977	1365.365580	10.470000	-4.910000
	104.599983	1365.345326	10.436000	-5.070000
	104.699988	1365.335794	10.434000	-4.980000
	104.799994	1365.344135	10.450000	-4.830000
	104.900000	1365.357242	10.450000	-4.790000
	105.000006	1365.371541	10.482000	-4.780000
	105.100011	1365.367966	10.484000	-4.930000
	105.211018	1365.358434	10.446000	-4.980000
	105.300023	1365.344137	10.416000	-5.020000
	105.400028	1365.352478	10.426000	-4.830000
	105.500034	1365.352478	10.426000	-4.830000
	105.600040	1365.354861	10.430000	-4.880000
	105.750048	1365.377501	10.462000	-4.710000
	105.850054	1365.219093	10.516000	-6.230000
	105.950060	1365.269141	10.440000	-4.480000
	106.050066	1365.298930	10.418000	-4.650000
	106.150071	1365.314420	10.424000	-4.770000
	106.250077	1365.331101	10.432000	-4.760000
	106.350083	1365.340633	10.428000	-4.820000
	106.450089	1365.358507	10.438000	-4.750000
	106.551094	1365.347784	10.306000	-4.990000
	106.650100	1365.347784	10.306000	-4.990000
	106.750105	1365.157229	10.340000	-6.500000
	106.856112	1365.179866	10.392000	-4.710000
	106.950117	1365.226337	10.458000	-4.510000
	107.050123	1365.258508	10.450000	-4.630000
	107.152129	1365.285914	10.436000	-4.670000
	107.250134	1365.299020	10.442000	-4.790000
	107.350140	1365.307361	10.432000	-4.830000
	107.450146	1365.327617	10.440000	-4.730000
	107.552152	1365.340724	10.446000	-4.790000
	107.651157	1365.333575	10.450000	-4.960000
	107.750163	1365.328809	10.432000	-4.940000
	107.850169	1365.327618	10.412000	-4.910000
	107.950174	1365.338341	10.450000	-4.810000
	108.050180	1365.338341	10.450000	-4.810000
	108.150186	1365.335958	10.460000	-4.920000
	108.250191	1365.325236	10.428000	-4.990000
	108.350197	1365.307365	10.402000	-5.050000
	108.450203	1365.403913	10.440000	-4.090000
	108.550209	1365.386041	10.444000	-5.050000
	108.650214	1365.369361	10.434000	-5.040000
	108.750220	1365.369361	10.416000	-4.900000
	108.850225	1365.383660	10.442000	-4.780000
	108.950232	1365.362214	10.438000	-5.080000
	109.050237	1365.386046	10.414000	-4.700000
	109.150243	1365.437292	10.412000	-4.470000
	109.250248	1365.469469	10.352000	-4.630000
	109.350254	1365.564836	10.338000	-4.100000
	109.450260	1365.599399	10.252000	-4.610000
	109.550266	1365.635156	10.356000	-4.600000
	109.650271	1365.635156	10.356000	-4.600000
	109.750277	1365.663760	10.414000	-4.660000
	109.850283	1365.656610	10.270000	-4.960000
	109.950289	1365.642310	10.506000	-5.020000
	110.050294	1365.654228	10.336000	-4.800000
	110.150300	1365.661378	10.310000	-4.840000
	110.250306	1365.624438	10.312000	-5.210000
	110.350311	1365.663772	10.330000	-4.570000
	110.450317	1365.694761	10.340000	-4.640000
	110.550323	1365.719791	10.326000	-4.690000
	110.650329	1365.736478	10.294000	-4.760000
	110.750334	1365.927353	7.228000	-3.300000
	110.850340	1381.719622	0.164000	60.510000
	110.950346	1181.882733	0.108000	85.800000
	111.050352	1213.054100	0.116000	72.970000
	111.150357	1213.054100	0.116000	72.970000
	111.250363	1233.853853	0.120000	67.520000
	111.353369	1268.007904	0.102000	73.460000
	111.450375	1284.538823	0.136000	62.870000
	111.550380	1302.082069	0.170000	63.730000
	111.650386	1314.165144	0.126000	55.680000
	111.750391	1358.669584	0.118000	75.280000
	111.850397	1382.074091	0.102000	67.590000
	111.950403	NaN	0.064000	84.730000
	112.050409	NaN	0.060000	91.880000
	112.150414	NaN	0.070000	95.550000
	112.256421	NaN	0.080000	118.110000
	112.350426	1339.943021	0.086000	100.810000
	112.450432	1395.483616	0.150000	72.150000
	112.550437	1426.347324	0.128000	70.990000
	112.650443	1426.347324	0.128000	70.990000
	112.750449	1488.471074	0.122000	77.110000
	112.865455	1506.250107	0.144000	61.170000
	112.950460	1539.784023	0.144000	71.070000
	113.050466	1598.270384	0.136000	76.170000
	113.150472	1649.693018	0.148000	74.850000
	113.253478	1713.484460	0.164000	76.300000
	113.350483	1748.331407	0.166000	69.930000
	113.450489	1769.131217	0.196000	61.090000
	113.550495	1813.887706	0.150000	72.530000
	113.650500	1842.695725	0.184000	66.320000
	113.750506	1882.725902	0.180000	70.770000
	113.850512	1934.012648	0.168000	73.300000
	113.950517	1952.842977	0.198000	56.790000
	114.050523	1982.370440	0.196000	65.510000
	114.150529	2002.530295	0.184000	57.770000
	114.261535	2023.014841	0.180000	57.900000
	114.350540	2064.600544	0.192000	70.070000
	114.450546	2064.600544	0.192000	70.070000
	114.550552	2098.935015	0.210000	67.050000
	114.650558	2119.008721	0.244000	56.380000
	114.800566	2165.606376	0.252000	70.920000
	114.900572	2218.428307	0.258000	72.130000
	115.000577	2253.683025	0.284000	66.330000
	115.100583	2289.631512	0.232000	66.390000
	115.200589	2313.362842	0.252000	58.190000
	115.300595	2335.117532	0.246000	55.990000
	115.400600	2370.935814	0.220000	65.750000
	115.500606	2394.368528	0.232000	57.130000
	115.600612	2426.397831	0.302000	63.350000
	115.704618	2426.397831	0.302000	63.350000
	115.800623	2476.897399	0.268000	70.230000
	115.900629	2528.327847	0.260000	70.200000
	116.000635	2565.148998	0.268000	64.870000
	116.099640	2606.424275	0.272000	66.530000
	116.199646	2665.278111	0.270000	71.240000
	116.299652	2721.537197	0.308000	70.410000
	116.399657	2769.334233	0.330000	67.880000
	116.499663	2816.912963	0.358000	67.550000
	116.600669	2840.086212	0.376000	52.770000
	116.699675	2875.741095	0.376000	62.150000
	116.799680	2908.763203	0.392000	60.370000
	116.899686	2934.596672	0.406000	54.640000
	116.999692	2934.596672	0.406000	54.640000
	117.099698	2959.769399	0.386000	53.800000
	117.199703	2998.644568	0.420000	63.010000
	117.299709	3054.054996	0.484000	68.620000
	117.399714	3095.220667	0.508000	63.490000
	117.499721	3142.498882	0.492000	65.680000
	117.599726	3191.857351	0.538000	66.140000
	117.699732	3237.915593	0.644000	64.710000
	117.799737	3272.589103	0.652000	58.900000
	117.899743	3313.822848	0.714000	62.220000
	117.999749	3359.786996	0.758000	64.010000
	118.099755	3375.367976	0.678000	37.290000
	118.199760	3401.591468	0.618000	51.330000
	118.299766	3448.073359	0.774000	63.740000
	118.399772	3495.061102	0.900000	63.690000
	118.504778	3529.150212	0.990000	56.830000
	118.599783	3571.921994	1.228000	61.460000
	118.699789	3571.921994	1.228000	61.460000
	118.799795	3611.262984	1.526000	59.500000
	118.899800	3647.546136	1.758000	57.500000
	119.049809	3673.625623	1.896000	49.180000
	119.149815	3699.378506	2.506000	48.660000
	119.249821	3729.934108	2.900000	52.870000
	119.349826	3732.477547	1.684000	2.840000
	119.449832	3744.404115	2.390000	27.270000
	119.599841	3756.167362	3.898000	26.840000
	119.699846	3762.040980	6.280000	12.340000
	119.799852	3751.643597	1.814000	-34.170000
	119.899858	3754.144795	3.836000	2.670000
	119.999864	3740.290723	1.702000	-41.840000
	120.099869	3737.998205	2.978000	-11.910000
	120.199875	3730.339557	1.984000	-27.390000
	120.299881	3729.818931	2.170000	-6.500000
	120.403887	3729.818931	2.170000	-6.500000
	120.499892	3743.640119	3.988000	31.140000
	120.599898	3756.517133	5.358000	29.170000
	120.699903	3765.379041	6.058000	20.100000
	120.799909	3773.141439	6.750000	17.300000
	120.899915	3776.390315	6.810000	4.830000
	120.999920	3779.368986	7.000000	4.030000
	121.099926	3782.023972	7.202000	3.070000
	121.199932	3783.285396	7.192000	-1.090000
	121.299938	3784.351112	7.228000	-1.680000
	121.410944	3782.788716	6.230000	-9.630000
	121.499949	3784.919584	5.436000	1.510000
	121.599955	3784.919584	5.436000	1.510000
	121.699961	3787.503905	5.120000	2.850000
	121.800966	3792.262306	6.390000	9.120000
	121.899972	3792.759151	5.634000	-3.400000
	121.999978	3796.283342	5.030000	5.580000
	122.099984	3791.125860	3.510000	-20.200000
	122.199989	3777.783464	2.080000	-40.520000
	122.302995	3761.981828	2.698000	-45.410000
	122.400001	3752.168786	4.866000	-32.760000
	122.500006	3744.432213	3.858000	-27.520000
	122.600012	3744.432213	3.858000	-27.520000
	122.700018	3728.491651	1.384000	-45.920000
	122.800024	3718.373366	3.288000	-33.720000
	122.900029	3658.143731	0.256000	-79.050000
	123.000035	3530.412435	0.244000	-88.130000
	123.100041	3481.926339	0.214000	-76.160000
	123.200047	3272.505403	0.264000	-91.520000
	123.301052	3166.775656	0.252000	-87.480000
	123.400058	3011.398311	0.246000	-90.460000
	123.500063	2950.607827	0.312000	-82.330000
	123.600070	2836.712230	0.366000	-88.900000
	123.700075	2836.712230	0.366000	-88.900000
	123.850084	2760.618348	0.332000	-85.710000
	123.950089	2572.018758	0.330000	-92.080000
	124.050095	2483.745346	0.400000	-87.990000
	124.150101	2362.929920	0.422000	-90.410000
	124.250106	2209.687885	0.462000	-91.860000
	124.350112	2105.781413	0.530000	-90.210000
	124.450118	1992.201874	0.642000	-90.980000
	124.550124	1917.550022	0.692000	-88.680000
	124.650129	1859.913122	0.794000	-86.830000
	124.700132	1859.913122	0.794000	-86.830000
	124.850141	1793.487489	0.914000	-88.310000
	124.950147	1731.858601	0.972000	-88.000000
	125.050152	1668.479375	1.144000	-88.500000
	125.150158	1622.574387	1.368000	-85.970000
	125.250164	1578.368531	1.566000	-85.870000
	125.350170	1543.692886	1.904000	-83.430000
	125.450175	1512.599761	2.214000	-82.300000
	125.550181	1487.248608	2.646000	-79.600000
	125.650187	1466.557749	3.158000	-76.400000
	125.750192	1448.936001	3.706000	-73.530000
	125.850198	1434.063882	4.348000	-70.090000
	125.950204	1422.069759	5.098000	-65.090000
	126.050210	1422.069759	5.098000	-65.090000
	126.150215	1412.196734	5.786000	-60.090000
	126.250221	1404.030099	6.544000	-54.880000
	126.350227	1397.234168	7.276000	-49.670000
	126.450233	1391.649990	7.942000	-44.100000
	126.550238	1387.119259	8.504000	-38.400000
	126.650244	1383.331881	8.944000	-33.870000
	126.750249	1380.252228	9.392000	-29.140000
	126.850255	1377.729462	9.664000	-25.150000
	126.950261	1375.628990	9.784000	-21.980000
	127.050267	1373.871711	10.010000	-19.320000
	127.150272	1372.405654	10.042000	-17.010000
	127.250278	1371.216908	10.116000	-14.770000
	127.350284	1370.247026	10.178000	-12.980000
	127.450290	1369.454187	10.264000	-11.520000
	127.553296	1368.828852	10.278000	-10.130000
	127.650301	1368.828852	10.278000	-10.130000
	127.750307	1368.305628	10.234000	-9.280000
	127.850313	1367.865116	10.292000	-8.590000
	127.950318	1367.523863	10.298000	-7.760000
	128.050324	1367.230424	10.310000	-7.360000
	128.150330	1367.005026	10.288000	-6.790000
	128.250335	1366.804702	10.310000	-6.580000
	128.350341	1366.648512	10.288000	-6.210000
	128.452347	1366.505451	10.322000	-6.100000
	128.550353	1366.406502	10.280000	-5.730000
	128.650358	1366.315904	10.330000	-5.660000
	128.750364	1366.244380	10.302000	-5.500000
	128.850369	1366.191929	10.292000	-5.340000
	128.950376	1366.140671	10.322000	-5.330000
	129.050381	1366.106102	10.284000	-5.190000
	129.150387	1366.070342	10.314000	-5.200000
	129.250392	1366.028624	10.308000	-5.250000
	129.350398	1366.028624	10.308000	-5.250000
	129.451404	1366.013127	10.304000	-5.030000
	129.550410	1366.009551	10.326000	-4.930000
	129.650415	1365.978561	10.334000	-5.160000
	129.750421	1365.964257	10.298000	-5.020000
	129.850427	1365.953529	10.322000	-4.990000
	129.952433	1365.940418	10.320000	-5.010000
	130.050438	1365.938034	10.302000	-4.920000
	130.150444	1365.932074	10.320000	-4.950000
	130.250450	1365.927306	10.314000	-4.940000
	130.350455	1365.916578	10.304000	-4.990000
	130.454462	1365.930883	10.314000	-4.780000
	130.550467	1365.915388	10.322000	-5.030000
	130.650473	1365.907044	10.308000	-4.970000
	130.750478	1365.907044	10.308000	-4.970000
	130.850484	1365.916580	10.300000	-4.820000
	130.950490	1365.913004	10.312000	-4.930000
	131.050496	1365.904661	10.282000	-4.970000
	131.150501	1365.910621	10.302000	-4.850000
	131.250507	1365.914197	10.332000	-4.870000
	131.352513	1365.898702	10.310000	-5.030000
	131.450519	1365.909430	10.312000	-4.810000
	131.550524	1365.916582	10.312000	-4.840000
	131.650530	1365.903471	10.270000	-5.010000
	131.750535	1365.915391	10.292000	-4.800000
	131.850541	1365.922543	10.330000	-4.840000
	131.950547	1365.916583	10.284000	-4.950000
	132.050553	1365.918967	10.292000	-4.880000
	132.150558	1365.918967	10.292000	-4.880000
	132.252564	1365.933272	10.310000	-4.780000
	132.353570	1365.930888	10.326000	-4.920000
	132.450575	1365.923736	10.308000	-4.960000
	132.550581	1365.927312	10.316000	-4.870000
	132.650587	1365.915393	10.324000	-5.000000
	132.750593	1365.913009	10.292000	-4.920000
	132.850598	1365.920161	10.322000	-4.840000
	132.950604	1365.921353	10.316000	-4.890000
	133.050610	1365.917777	10.298000	-4.930000
	133.150616	1365.924929	10.328000	-4.840000
	133.255621	1365.915393	10.316000	-4.980000
	133.350627	1365.918969	10.308000	-4.870000
	133.450633	1365.930890	10.300000	-4.800000
	133.550639	1365.930890	10.300000	-4.800000
	133.649644	1365.918970	10.304000	-5.000000
	133.749650	1365.913010	10.296000	-4.950000
	133.849656	1365.927315	10.300000	-4.780000
	133.949661	1365.939236	10.314000	-4.800000
	134.049667	1365.934468	10.308000	-4.940000
	134.149673	1365.934468	10.294000	-4.900000
	134.257679	1365.949965	10.298000	-4.770000
	134.349684	1365.953541	10.330000	-4.870000
	134.449690	1365.953541	10.330000	-4.870000
	134.549695	1365.949965	10.336000	-4.930000
	134.649702	1365.934469	10.314000	-5.030000
	134.799710	1365.934469	10.310000	-4.900000
	134.899716	1365.918974	10.334000	-5.030000
	134.999722	1365.911822	10.302000	-4.960000
	135.099727	1365.905863	10.304000	-4.950000
	135.199733	1365.916591	10.330000	-4.810000
	135.299738	1365.910631	10.324000	-4.950000
	135.399745	1365.890369	10.310000	-5.070000
	135.499750	1365.904673	10.318000	-4.780000
	135.601756	1365.904673	10.318000	-4.780000
	135.702762	1365.905865	10.328000	-4.890000
	135.799767	1365.911825	10.308000	-4.850000
	135.899773	1365.910633	10.302000	-4.910000
	135.999779	1365.922553	10.332000	-4.800000
	136.099784	1365.914210	10.320000	-4.970000
	136.199790	1365.902290	10.324000	-5.000000
	136.299796	1365.909442	10.298000	-4.840000
	136.403802	1365.926131	10.342000	-4.760000
	136.500807	1365.923747	10.318000	-4.920000
	136.614814	1365.923747	10.318000	-4.920000
	136.699819	1365.907060	10.314000	-5.040000
	136.799824	1365.914212	10.296000	-4.840000
	136.899830	1365.932093	10.308000	-4.750000
	136.999836	1365.920174	10.318000	-5.000000
	137.099842	1365.927326	10.304000	-4.840000
	137.249850	1365.940439	10.316000	-4.790000
	137.352856	1365.936863	10.312000	-4.930000
	137.449862	1365.929711	10.304000	-4.960000
	137.549867	1365.924943	10.320000	-4.940000
	137.649873	1365.922559	10.318000	-4.920000
	137.749879	1365.920175	10.310000	-4.920000
	137.849885	1365.934480	10.294000	-4.780000
	137.949890	1365.945208	10.298000	-4.810000
	137.999893	1365.945208	10.298000	-4.810000
	138.150902	1365.941632	10.318000	-4.930000
	138.249907	1365.934480	10.334000	-4.960000
	138.349913	1365.933288	10.310000	-4.910000
	138.449919	1365.938056	10.320000	-4.860000
	138.549924	1365.926137	10.302000	-5.000000
	138.649930	1365.928521	10.288000	-4.880000
	138.749936	1365.927329	10.324000	-4.910000
	138.850942	1365.917793	10.328000	-4.980000
	138.952948	1365.909449	10.302000	-4.970000
	139.049953	1365.909449	10.302000	-4.970000
	139.149959	1365.910641	10.310000	-4.890000
	139.249965	1365.902298	10.332000	-4.970000
	139.349970	1365.897530	10.318000	-4.940000
	139.449976	1365.905874	10.284000	-4.830000
	139.549982	1365.914218	10.318000	-4.830000
	139.649987	1365.914218	10.338000	-4.900000
	139.749993	1365.903491	10.310000	-4.990000
	139.849999	1365.896339	10.298000	-4.960000
	139.956005	1365.909451	10.338000	-4.790000
	140.053010	1365.907067	10.310000	-4.920000
	140.150016	1365.907067	10.310000	-4.920000
	140.250021	1365.898724	10.308000	-4.970000
	140.350028	1365.908260	10.314000	-4.820000
	140.452033	1365.903492	10.326000	-4.940000
	140.550039	1365.898724	10.294000	-4.940000
	140.650044	1365.911837	10.276000	-4.790000
	140.750050	1365.928525	10.296000	-4.760000
	140.850056	1365.928525	10.312000	-4.900000
	140.962062	1365.916606	10.306000	-5.000000
	141.050067	1365.928526	10.298000	-4.800000
	141.150073	1365.921375	10.322000	-4.960000
	141.250079	1365.921375	10.322000	-4.960000
	141.350085	1365.916607	10.314000	-4.940000
	141.500093	1365.917799	10.300000	-4.890000
	141.600099	1365.936872	10.314000	-4.740000
	141.700105	1365.915417	10.336000	-5.080000
	141.800110	1365.920185	10.296000	-4.860000
	141.900116	1365.923761	10.314000	-4.870000
	142.000122	1365.921377	10.314000	-4.920000
	142.100128	1365.907074	10.326000	-5.020000
	142.200133	1365.914226	10.316000	-4.840000
	142.302139	1365.927339	10.320000	-4.790000
	142.400145	1365.927339	10.320000	-4.790000
	142.500150	1365.927339	10.344000	-4.900000
	142.600156	1365.917803	10.308000	-4.980000
	142.700162	1365.923763	10.302000	-4.850000
	142.800168	1365.924955	10.320000	-4.890000
	142.900173	1365.920187	10.316000	-4.940000
	143.000179	1365.915419	10.308000	-4.940000
	143.100185	1365.926148	10.328000	-4.810000
	143.200191	1365.924956	10.320000	-4.910000
	143.306197	1365.930916	10.300000	-4.850000
	143.400202	1365.930916	10.300000	-4.850000
	143.500207	1365.928532	10.296000	-4.920000
	143.600213	1365.951182	10.330000	-4.710000
	143.700219	1365.938070	10.316000	-5.010000
	143.850227	1365.926151	10.300000	-5.000000
	143.950233	1365.935687	10.298000	-4.820000
	144.050239	1365.946415	10.324000	-4.810000
	144.150245	1365.942839	10.316000	-4.930000
	144.250250	1365.942839	10.308000	-4.900000
	144.350256	1365.961913	10.306000	-4.740000
	144.450262	1365.963105	10.324000	-4.890000
	144.550268	1365.952377	10.298000	-4.990000
	144.650273	1365.952377	10.298000	-4.990000
	144.700276	1365.963106	10.306000	-4.810000
	144.850285	1365.976219	10.304000	-4.790000
	144.951291	1365.967875	10.326000	-4.970000
	145.050296	1365.963107	10.316000	-4.940000
	145.151302	1365.964299	10.310000	-4.890000
	145.250308	1365.965491	10.312000	-4.890000
	145.350313	1365.969067	10.318000	-4.870000
	145.451319	1365.954763	10.304000	-5.020000
	145.552325	1365.945227	10.288000	-4.980000
	145.660331	1365.947611	10.296000	-4.880000
	145.752337	1365.947611	10.296000	-4.880000
	145.850342	1365.948803	10.300000	-4.890000
	145.954348	1365.930924	10.296000	-5.050000
	146.050354	1365.932116	10.290000	-4.890000
	146.150359	1365.942845	10.314000	-4.810000
	146.250365	1365.935693	10.298000	-4.960000
	146.350370	1365.949998	10.320000	-4.780000
	146.450377	1365.959534	10.332000	-4.820000
	146.550382	1365.949998	10.318000	-4.980000
	146.650388	1365.936887	10.312000	-5.010000
	146.750393	1365.948807	10.314000	-4.800000
	146.850399	1365.948807	10.314000	-4.800000
	147.000408	1365.953576	10.326000	-4.860000
	147.100413	1365.936888	10.318000	-5.040000
	147.200419	1365.946425	10.324000	-4.820000
	147.300425	1365.946425	10.330000	-4.900000
	147.400431	1365.950001	10.322000	-4.870000
	147.552439	1365.942849	10.294000	-4.960000
	147.650445	1365.960730	10.316000	-4.750000
	147.750451	1365.960730	10.326000	-4.900000
	147.850456	1365.961922	10.298000	-4.890000
	147.950462	1365.969075	10.310000	-4.840000
	148.050468	1365.958347	10.324000	-4.990000
	148.150474	1365.941659	10.312000	-5.040000
	148.200476	1365.941659	10.312000	-5.040000
	148.365486	1365.935699	10.296000	-4.950000
	148.467492	1365.946428	10.306000	-4.810000
	148.555497	1365.945236	10.324000	-4.910000
	148.650502	1365.928549	10.296000	-5.040000
	148.750508	1365.923781	10.298000	-4.940000
	148.907517	1365.927357	10.326000	-4.870000
	149.000522	1365.909478	10.312000	-5.050000
	149.100528	1365.920206	10.294000	-4.810000
	149.200533	1365.920206	10.332000	-4.900000
	149.300539	1365.914246	10.312000	-4.950000
	149.400545	1365.922591	10.290000	-4.830000
	149.501551	1365.916631	10.292000	-4.950000
	149.600556	1365.932127	10.302000	-4.770000
	149.700562	1365.932127	10.302000	-4.770000
	149.810568	1365.924976	10.302000	-4.960000
	149.900574	1365.923784	10.298000	-4.910000
	150.000579	1365.919016	10.302000	-4.940000
	150.100585	1365.929744	10.332000	-4.810000
	150.209591	1365.929744	10.316000	-4.900000
	150.300597	1365.910673	10.310000	-5.060000
	150.405602	1365.926170	10.328000	-4.770000
	150.500608	1365.928554	10.312000	-4.880000
	150.600614	1365.926170	10.296000	-4.920000
	150.714620	1365.927362	10.292000	-4.890000
	150.817626	1365.927362	10.292000	-4.890000
	150.900631	1365.935706	10.330000	-4.830000
	151.000637	1365.916636	10.340000	-5.060000
	151.099642	1365.913060	10.290000	-4.930000
	151.201648	1365.929748	10.306000	-4.760000
	151.299654	1365.916637	10.328000	-5.010000
	151.399659	1365.907102	10.304000	-4.980000
	151.499665	1365.910677	10.308000	-4.870000
	151.599671	1365.920214	10.314000	-4.820000
	151.700676	1365.916638	10.312000	-4.930000
	151.800682	1365.917830	10.300000	-4.890000
	151.899688	1365.922598	10.328000	-4.860000
	152.003694	1365.922598	10.328000	-4.860000
	152.099699	1365.936902	10.334000	-4.780000
	152.199705	1365.929751	10.332000	-4.960000
	152.349714	1365.924983	10.298000	-4.940000
	152.456720	1365.926175	10.296000	-4.890000
	152.549725	1365.928559	10.312000	-4.880000
	152.649731	1365.924983	10.334000	-4.930000
	152.750737	1365.916639	10.314000	-4.970000
	152.849742	1365.917831	10.262000	-4.890000
	152.949748	1365.932136	10.294000	-4.780000
	153.049754	1365.932136	10.294000	-4.780000
	153.156760	1365.926176	10.334000	-4.950000
	153.249765	1365.905913	10.310000	-5.070000
	153.349771	1365.905913	10.302000	-4.900000
	153.449777	1365.924986	10.318000	-4.740000
	153.549782	1365.917835	10.326000	-4.960000
	153.649788	1365.911875	10.300000	-4.950000
	153.763794	1365.914259	10.316000	-4.880000
	153.864800	1365.914259	10.316000	-4.880000
	153.951806	1365.911875	10.294000	-4.920000
	154.049811	1365.936909	10.316000	-4.690000
	154.160817	1365.939293	10.320000	-4.880000
	154.251822	1365.932141	10.312000	-4.960000
	154.351828	1365.928565	10.292000	-4.930000
	154.449834	1365.938101	10.304000	-4.820000
	154.549839	1365.938101	10.328000	-4.900000
	154.699848	1365.922606	10.324000	-5.030000
	154.799854	1365.933335	10.314000	-4.810000
	154.899859	1365.945255	10.324000	-4.800000
	154.999865	1365.936911	10.318000	-4.970000
	155.099871	1365.938103	10.292000	-4.890000
	155.199877	1365.965522	10.304000	-4.670000
	155.299882	1365.944067	10.316000	-5.080000
	155.399888	1365.929764	10.298000	-5.020000
	155.506894	1365.944069	10.300000	-4.780000
	155.599900	1365.952413	10.338000	-4.830000
	155.699905	1365.952413	10.338000	-4.830000
	155.799911	1365.942877	10.312000	-4.980000
	155.899917	1365.942877	10.288000	-4.900000
	155.999922	1365.939301	10.302000	-4.930000
	156.149931	1365.924998	10.298000	-5.020000
	156.249937	1365.930958	10.274000	-4.850000
	156.349943	1365.942879	10.286000	-4.800000
	156.449948	1365.951223	10.314000	-4.830000
	156.550954	1365.948839	10.310000	-4.920000
	156.649960	1365.942879	10.274000	-4.950000
	156.749965	1365.963145	10.328000	-4.730000
	156.849971	1365.966721	10.322000	-4.870000
	156.951977	1365.955993	10.302000	-4.990000
	157.049983	1365.959569	10.290000	-4.870000
	157.149988	1365.959569	10.290000	-4.870000
	157.249994	1365.960761	10.334000	-4.890000
	157.350000	1365.944074	10.338000	-5.040000
	157.450006	1365.952418	10.288000	-4.830000
	157.550011	1365.953610	10.292000	-4.890000
	157.661017	1365.940498	10.318000	-5.010000
	157.752023	1365.948843	10.328000	-4.830000
	157.852028	1365.948843	10.328000	-4.830000
	157.964035	1365.950035	10.310000	-4.890000
	158.050040	1365.944075	10.286000	-4.950000
	158.150045	1365.938115	10.298000	-4.950000
	158.250051	1365.936923	10.322000	-4.910000
	158.350057	1365.930963	10.316000	-4.950000
	158.450063	1365.941691	10.310000	-4.810000
	158.551068	1365.940499	10.324000	-4.910000
	158.651074	1365.927388	10.292000	-5.010000
	158.752080	1365.942885	10.302000	-4.770000
	158.853086	1365.939309	10.314000	-4.930000
	158.962092	1365.945269	10.296000	-4.850000
	159.050097	1365.954805	10.278000	-4.820000
	159.152103	1365.954805	10.278000	-4.820000
	159.250108	1365.955997	10.316000	-4.890000
	159.352114	1365.940502	10.314000	-5.030000
	159.450120	1365.939310	10.304000	-4.910000
	159.552125	1365.950038	10.322000	-4.810000
	159.650131	1365.938119	10.328000	-5.000000
	159.750137	1365.928583	10.298000	-4.980000
	159.853143	1365.950041	10.318000	-4.720000
	159.950149	1365.935737	10.322000	-5.020000
	160.050154	1365.939313	10.280000	-4.870000
	160.150160	1365.936929	10.314000	-4.920000
	160.250165	1365.936929	10.314000	-4.920000
	160.400174	1365.922626	10.304000	-5.020000
	160.500180	1365.933354	10.276000	-4.810000
	160.600185	1365.932162	10.292000	-4.910000
	160.700191	1365.947659	10.322000	-4.770000
	160.800197	1365.948851	10.328000	-4.890000
	160.900203	1365.948851	10.290000	-4.900000
	161.000208	1365.951235	10.316000	-4.880000
	161.100214	1365.947659	10.294000	-4.930000
	161.201220	1365.941700	10.296000	-4.950000
	161.250223	1365.941700	10.296000	-4.950000
	161.401231	1365.971503	10.308000	-4.650000
	161.500237	1365.969119	10.324000	-4.920000
	161.600243	1365.959583	10.296000	-4.980000
	161.700249	1365.978657	10.314000	-4.740000
	161.803255	1365.978657	10.318000	-4.900000
	161.900260	1365.976273	10.300000	-4.920000
	162.000266	1365.979849	10.308000	-4.870000
	162.104272	1365.983425	10.312000	-4.870000
	162.210278	1365.958394	10.320000	-5.110000
	162.300283	1365.960779	10.282000	-4.880000
	162.401289	1365.960779	10.282000	-4.880000
	162.500294	1365.970315	10.322000	-4.820000
	162.600300	1365.963163	10.326000	-4.960000
	162.706306	1365.957203	10.300000	-4.950000
	162.800312	1365.959587	10.318000	-4.880000
	162.900317	1365.963163	10.318000	-4.870000
	163.002323	1365.963163	10.318000	-4.870000
	163.104329	1365.967931	10.312000	-4.860000
	163.210335	1365.964355	10.328000	-4.930000
	163.300340	1365.953628	10.308000	-4.990000
	163.400346	1365.950052	10.276000	-4.930000
	163.500351	1365.950052	10.276000	-4.930000
	163.600357	1365.969125	10.300000	-4.740000
	163.752366	1365.960781	10.320000	-4.970000
	163.850371	1365.942902	10.302000	-5.050000
	163.951377	1365.942902	10.306000	-4.900000
	164.050383	1365.946478	10.322000	-4.870000
	164.150389	1365.939326	10.304000	-4.960000
	164.250394	1365.952439	10.300000	-4.790000
	164.350400	1365.956015	10.344000	-4.870000
	164.451406	1365.953631	10.300000	-4.920000
	164.553412	1365.961975	10.286000	-4.830000
	164.653418	1365.964359	10.316000	-4.880000
	164.752423	1365.964359	10.304000	-4.900000
	164.851429	1365.963167	10.304000	-4.910000
	164.952435	1365.959591	10.326000	-4.930000
	165.050440	1365.947672	10.300000	-5.000000
	165.152446	1365.965553	10.316000	-4.750000
	165.300455	1365.965553	10.316000	-4.750000
	165.400460	1365.958401	10.326000	-4.960000
	165.500466	1365.966745	10.292000	-4.830000
	165.550469	1365.967937	10.308000	-4.890000
	165.700478	1365.959593	10.310000	-4.970000
	165.800483	1365.982244	10.294000	-4.710000
	165.900489	1365.977476	10.330000	-4.940000
	166.000494	1365.972708	10.304000	-4.940000
	166.100500	1365.970324	10.296000	-4.920000
	166.200506	1365.961980	10.318000	-4.970000
	166.300512	1365.957212	10.306000	-4.940000
	166.400517	1365.960788	10.294000	-4.870000
	166.500523	1365.954828	10.314000	-4.950000
	166.600529	1365.953636	10.302000	-4.910000
	166.700535	1365.953636	10.302000	-4.910000
	166.800540	1365.954828	10.328000	-4.890000
	166.900546	1365.956020	10.308000	-4.890000
	167.001552	1365.957212	10.318000	-4.890000
	167.100557	1365.964364	10.328000	-4.840000
	167.200563	1365.959596	10.306000	-4.940000
	167.300569	1365.963172	10.304000	-4.870000
	167.400575	1365.953636	10.304000	-4.980000
	167.500580	1365.963173	10.302000	-4.820000
	167.600586	1365.970325	10.326000	-4.840000
	167.700592	1365.958405	10.310000	-5.000000
	167.800598	1365.958405	10.300000	-4.900000
	167.900603	1365.959597	10.334000	-4.890000
	168.000609	1365.953637	10.304000	-4.950000
	168.100615	1365.963174	10.314000	-4.820000
	168.200620	1365.963174	10.314000	-4.820000
	168.300626	1365.953638	10.326000	-4.980000
	168.400632	1365.957214	10.310000	-4.870000
	168.500638	1365.964366	10.326000	-4.840000
	168.599643	1365.967943	10.302000	-4.870000
	168.699649	1365.970327	10.308000	-4.880000
	168.799654	1365.960791	10.322000	-4.980000
	168.900661	1365.947679	10.296000	-5.010000
	168.999666	1365.950063	10.316000	-4.880000
	169.099672	1365.939335	10.320000	-4.990000
	169.199677	1365.951256	10.308000	-4.800000
	169.299683	1365.946488	10.312000	-4.940000
	169.399689	1365.944104	10.312000	-4.920000
	169.499695	1365.952448	10.326000	-4.830000
	169.599700	1365.941721	10.306000	-4.990000
	169.699706	1365.957218	10.316000	-4.770000
	169.799712	1365.951258	10.330000	-4.950000
	169.900718	1365.951258	10.330000	-4.950000
	169.999723	1365.939338	10.304000	-5.000000
	170.099729	1365.952451	10.306000	-4.790000
	170.199735	1365.954835	10.320000	-4.880000
	170.299740	1365.948875	10.296000	-4.950000
	170.399746	1365.963180	10.306000	-4.780000
	170.499752	1365.954836	10.302000	-4.970000
	170.599758	1365.947684	10.292000	-4.960000
	170.699763	1365.948876	10.324000	-4.890000
	170.799769	1365.941724	10.286000	-4.960000
	170.899775	1365.950068	10.284000	-4.830000
	170.999781	1365.958413	10.320000	-4.830000
	171.099786	1365.965565	10.300000	-4.840000
	171.199792	1365.975102	10.332000	-4.820000
	171.299798	1365.964374	10.298000	-4.990000
	171.399803	1365.982255	10.314000	-4.750000
	171.499809	1365.975103	10.320000	-4.960000
	171.599815	1365.975103	10.320000	-4.960000
	171.699821	1365.977487	10.308000	-4.880000
	171.799826	1365.972719	10.334000	-4.940000
	171.899832	1365.964375	10.298000	-4.970000
	171.999838	1365.917893	10.372000	-5.290000
	172.099844	1365.927430	10.316000	-4.820000
	172.199849	1365.948887	10.294000	-4.720000
	172.299855	1365.957232	10.318000	-4.830000
	172.399860	1365.944120	10.294000	-5.010000
	172.500866	1365.966770	10.316000	-4.710000
	172.599872	1365.958426	10.332000	-4.970000
	172.699878	1365.964386	10.300000	-4.850000
	172.799883	1365.975115	10.300000	-4.810000
	172.899889	1365.967963	10.306000	-4.960000
	172.999895	1365.972731	10.288000	-4.860000
	173.099901	1365.972731	10.288000	-4.860000
	173.199906	1365.995382	10.320000	-4.710000
	173.299912	1365.971543	10.314000	-5.100000
	173.399918	1365.981079	10.302000	-4.820000
	173.499924	1365.987040	10.324000	-4.850000
	173.599929	1365.985848	10.288000	-4.910000
	173.701935	1365.996577	10.298000	-4.810000
	173.799941	1365.978697	10.338000	-5.050000
	173.899946	1365.991810	10.294000	-4.790000
	173.999952	1365.989426	10.320000	-4.920000
	174.099958	1365.979890	10.294000	-4.980000
	174.199964	1365.987042	10.310000	-4.840000
	174.299969	1365.984658	10.314000	-4.920000
	174.399975	1365.978698	10.284000	-4.950000
	174.499980	1365.978698	10.332000	-4.900000
	174.599987	1365.967970	10.312000	-4.990000
	174.699992	1365.967970	10.312000	-4.990000
	174.799998	1365.976315	10.304000	-4.830000
	174.900003	1365.979891	10.334000	-4.870000
	175.001009	1365.971547	10.312000	-4.970000
	175.100015	1365.981083	10.314000	-4.820000
	175.200021	1365.964396	10.306000	-5.040000
	175.300026	1365.965588	10.294000	-4.890000
	175.400032	1365.967972	10.340000	-4.880000
	175.500038	1365.950092	10.298000	-5.050000
	175.602044	1365.970358	10.338000	-4.730000
	175.700049	1365.973934	10.308000	-4.870000
	175.800055	1365.978703	10.288000	-4.860000
	175.900061	1365.967975	10.326000	-4.990000
	176.000066	1365.962015	10.292000	-4.950000
	176.100072	1365.967975	10.298000	-4.850000
	176.200078	1365.967975	10.298000	-4.850000
	176.300084	1365.957247	10.318000	-4.990000
	176.400089	1365.953671	10.300000	-4.930000
	176.501095	1365.971553	10.316000	-4.750000
	176.600101	1365.962017	10.310000	-4.980000
	176.700107	1365.965593	10.306000	-4.870000
	176.800112	1365.950097	10.316000	-5.030000
	176.900118	1365.962018	10.282000	-4.800000
	177.000124	1365.965594	10.330000	-4.870000
	177.100130	1365.954866	10.322000	-4.990000
	177.200135	1365.962018	10.282000	-4.840000
	177.300141	1365.971555	10.322000	-4.820000
	177.400146	1365.971555	10.288000	-4.900000
	177.501153	1365.985860	10.314000	-4.780000
	177.600158	1365.985860	10.314000	-4.780000
	177.700164	1365.965597	10.304000	-5.070000
	177.804170	1365.967981	10.292000	-4.880000
	177.900175	1365.965597	10.318000	-4.920000
	178.000181	1365.952485	10.284000	-5.010000
	178.100187	1365.972751	10.302000	-4.730000
	178.200192	1365.982288	10.324000	-4.820000
	178.300198	1365.977520	10.304000	-4.940000
	178.407204	1365.983480	10.298000	-4.850000
	178.500209	1365.983480	10.328000	-4.900000
	178.600215	1365.977520	10.314000	-4.950000
	178.700221	1365.990633	10.314000	-4.790000
	178.800227	1365.990633	10.314000	-4.790000
	178.900232	1365.969178	10.328000	-5.080000
	179.000238	1365.972754	10.298000	-4.870000
	179.100244	1365.978714	10.326000	-4.850000
	179.200250	1365.976330	10.300000	-4.920000
	179.303256	1365.988251	10.310000	-4.800000
	179.404261	1365.983483	10.316000	-4.940000
	179.500267	1365.984675	10.296000	-4.890000
	179.600272	1365.997788	10.316000	-4.790000
	179.700278	1365.989444	10.300000	-4.970000
	179.800284	1365.995404	10.308000	-4.850000
	179.900290	1365.978716	10.314000	-5.040000
	180.000295	1365.982293	10.284000	-4.870000
	180.100301	1365.981101	10.318000	-4.910000
	180.200307	1365.959645	10.300000	-5.080000
	180.300313	1365.975143	10.302000	-4.770000
	180.400318	1365.969183	10.324000	-4.950000
	180.500324	1365.989449	10.310000	-4.730000
	180.600329	1365.989449	10.310000	-4.730000
	180.700336	1365.989449	10.310000	-4.900000
	180.800341	1365.972761	10.314000	-5.040000
	180.900347	1365.985874	10.304000	-4.790000
	181.000352	1365.987066	10.312000	-4.890000
	181.120359	1365.962035	10.302000	-5.110000
	181.200364	1365.971572	10.306000	-4.820000
	181.300370	1365.964420	10.320000	-4.960000
	181.400375	1365.962036	10.288000	-4.920000
	181.501381	1365.967996	10.308000	-4.850000
	181.600387	1365.973956	10.296000	-4.850000
	181.700393	1365.978724	10.298000	-4.860000
	181.803399	1365.973956	10.322000	-4.940000
	181.900404	1365.970380	10.294000	-4.930000
	182.002410	1365.976341	10.312000	-4.850000
	182.100415	1365.976341	10.312000	-4.850000
	182.200421	1365.963229	10.322000	-5.010000
	182.300427	1365.973957	10.310000	-4.810000
	182.400433	1365.964422	10.328000	-4.980000
	182.500438	1365.960845	10.304000	-4.930000
	182.600444	1365.976343	10.324000	-4.770000
	182.701450	1365.966807	10.310000	-4.980000
	182.800456	1365.977535	10.302000	-4.810000
	182.900461	1365.977535	10.320000	-4.900000
	183.050470	1365.976343	10.300000	-4.910000
	183.150476	1365.983496	10.308000	-4.840000
	183.250481	1365.975152	10.340000	-4.970000
	183.350487	1365.972768	10.286000	-4.920000
	183.450492	1365.988265	10.330000	-4.770000
	183.550498	1365.978729	10.304000	-4.980000
	183.650504	1365.989458	10.306000	-4.810000
	183.750510	1365.993034	10.324000	-4.870000
	183.850515	1365.993034	10.324000	-4.870000
	183.950521	1365.983498	10.300000	-4.980000
	184.050527	1365.990650	10.304000	-4.840000
	184.150533	1365.990650	10.308000	-4.900000
	184.250538	1365.997803	10.322000	-4.840000
	184.350544	1365.982307	10.344000	-5.030000
	184.450550	1365.991844	10.288000	-4.820000
	184.550556	1366.001380	10.306000	-4.820000
	184.650561	1365.984693	10.328000	-5.040000
	184.750567	1365.981116	10.288000	-4.930000
	184.850573	1365.969197	10.316000	-5.000000
	184.950578	1365.964428	10.306000	-4.940000
	185.050584	1365.977541	10.304000	-4.790000
	185.150590	1365.975157	10.332000	-4.920000
	185.250596	1365.971581	10.286000	-4.930000
	185.350601	1365.973965	10.308000	-4.880000
	185.450607	1365.973965	10.308000	-4.880000
	185.550612	1365.975157	10.324000	-4.890000
	185.650619	1365.979926	10.298000	-4.860000
	185.750624	1365.987078	10.326000	-4.840000
	185.850630	1365.977542	10.316000	-4.980000
	185.950635	1365.973966	10.284000	-4.930000
	186.049641	1365.983503	10.332000	-4.820000
	186.149647	1365.964431	10.300000	-5.060000
	186.249653	1365.972776	10.300000	-4.830000
	186.349658	1365.959664	10.334000	-5.010000
	186.449664	1365.950128	10.292000	-4.980000
	186.549670	1365.962049	10.324000	-4.800000
	186.649675	1365.952513	10.304000	-4.980000
	186.749681	1365.972779	10.306000	-4.730000
	186.849687	1365.981123	10.306000	-4.830000
	186.949693	1365.965627	10.300000	-5.030000
	187.049698	1365.982317	10.304000	-4.760000
	187.149704	1365.982317	10.332000	-4.900000
	187.249710	1365.982317	10.332000	-4.900000
	187.349716	1365.991854	10.304000	-4.820000
	187.449721	1366.003775	10.312000	-4.800000
	187.549727	1365.993047	10.322000	-4.990000
	187.649733	1365.985894	10.300000	-4.960000
	187.749739	1365.996623	10.324000	-4.810000
	187.849744	1365.989471	10.298000	-4.960000
	187.949750	1366.001392	10.304000	-4.800000
	188.049756	1366.003776	10.328000	-4.880000
	188.149761	1365.988280	10.302000	-5.030000
	188.249767	1365.993049	10.322000	-4.860000
	188.349773	1365.985896	10.336000	-4.960000
	188.449779	1365.987089	10.284000	-4.890000
	188.549784	1365.982320	10.330000	-4.940000
	188.649790	1365.979936	10.298000	-4.920000
	188.749796	1365.991857	10.308000	-4.800000
	188.849802	1365.991857	10.308000	-4.800000
	188.949807	1365.987089	10.330000	-4.940000
	189.049813	1365.971593	10.286000	-5.030000
	189.149818	1365.982322	10.330000	-4.810000
	189.249825	1365.979938	10.310000	-4.920000
	189.349830	1365.984706	10.284000	-4.860000
	189.449836	1365.997819	10.314000	-4.790000
	189.549841	1365.981132	10.302000	-5.040000
	189.649847	1365.983516	10.300000	-4.880000
	189.749853	1365.983516	10.324000	-4.900000
	189.849859	1365.972788	10.292000	-4.990000
	189.949864	1365.985901	10.312000	-4.790000
	190.049870	1365.996630	10.330000	-4.810000
	190.149876	1365.990670	10.294000	-4.950000
	190.249881	1365.999014	10.320000	-4.830000
	190.349887	1365.999014	10.320000	-4.830000
	190.449893	1365.987094	10.320000	-5.000000
	190.549899	1365.972790	10.302000	-5.020000
	190.649904	1365.975174	10.310000	-4.880000
	190.749910	1365.968022	10.308000	-4.960000
	190.849916	1365.972790	10.322000	-4.860000
	190.949922	1365.960871	10.320000	-5.000000
	191.049927	1365.969215	10.292000	-4.830000
	191.149933	1365.981136	10.334000	-4.800000
	191.249938	1365.959681	10.292000	-5.080000
	191.349945	1365.972794	10.314000	-4.790000
	191.449950	1365.976370	10.314000	-4.870000
	191.549956	1365.962066	10.300000	-5.020000
	191.649961	1365.965642	10.310000	-4.870000
	191.749967	1365.957298	10.324000	-4.970000
	191.849973	1365.958490	10.304000	-4.890000
	191.949979	1365.958490	10.304000	-4.890000
	192.049984	1365.981141	10.332000	-4.710000
	192.149990	1365.971605	10.310000	-4.980000
	192.249996	1365.969221	10.290000	-4.920000
	192.350002	1365.976373	10.308000	-4.840000
	192.450007	1365.977565	10.324000	-4.890000
	192.550013	1365.984717	10.314000	-4.840000
	192.650019	1366.007368	10.336000	-4.710000
	192.750024	1366.007368	10.306000	-4.900000
	192.850030	1366.018097	10.306000	-4.810000
	192.950036	1366.004985	10.320000	-5.010000
	193.050042	1366.001409	10.294000	-4.930000
	193.150047	1366.016907	10.328000	-4.770000
	193.250053	1366.006178	10.304000	-4.990000
	193.350059	1366.013331	10.286000	-4.840000
	193.450065	1366.019291	10.328000	-4.850000
	193.550070	1365.994260	10.316000	-5.110000
	193.650076	1365.994260	10.316000	-5.110000
	193.750082	1366.014527	10.322000	-4.730000
	193.850087	1365.987111	10.328000	-5.130000
	193.950093	1365.993072	10.294000	-4.850000
	194.050099	1366.007377	10.312000	-4.780000
	194.150105	1366.009761	10.332000	-4.880000
	194.250110	1366.019298	10.298000	-4.820000
	194.350116	1366.019298	10.314000	-4.900000
	194.450122	1366.016914	10.316000	-4.920000
	194.550128	1366.010954	10.314000	-4.950000
	194.650133	1366.024067	10.314000	-4.790000
	194.750139	1366.013339	10.348000	-4.990000
	194.850144	1366.002611	10.288000	-4.990000
	194.950150	1366.016916	10.322000	-4.780000
	195.050156	1366.019300	10.310000	-4.880000
	195.150162	1366.019300	10.310000	-4.880000
	195.250167	1366.019300	10.298000	-4.900000
	195.350173	1366.026453	10.318000	-4.840000
	195.450179	1366.019301	10.316000	-4.960000
	195.550185	1366.019301	10.298000	-4.900000
	195.650190	1366.019301	10.322000	-4.900000
	195.750196	1366.014533	10.298000	-4.940000
	195.850202	1366.024070	10.322000	-4.820000
	195.950208	1366.022877	10.322000	-4.910000
	196.050213	1366.018109	10.304000	-4.940000
	196.150219	1366.028838	10.312000	-4.810000
	196.250225	1366.027646	10.296000	-4.910000
	196.350230	1366.024070	10.288000	-4.930000
	196.450236	1366.039568	10.316000	-4.770000
	196.550242	1366.034800	10.312000	-4.940000
	196.650248	1366.034800	10.284000	-4.900000
	196.750253	1366.034800	10.284000	-4.900000
	196.850259	1366.044337	10.324000	-4.820000
	196.950265	1366.032416	10.310000	-5.000000
	197.050271	1366.045530	10.290000	-4.790000
	197.150276	1366.051491	10.310000	-4.850000
	197.250282	1366.049106	10.316000	-4.920000
	197.350287	1366.063412	10.308000	-4.780000
	197.450294	1366.056260	10.328000	-4.960000
	197.550299	1366.037187	10.304000	-5.060000
	197.650305	1366.039572	10.284000	-4.880000
	197.750310	1366.033611	10.314000	-4.950000
	197.850316	1366.025267	10.314000	-4.970000
	197.950322	1366.028843	10.310000	-4.870000
	198.050328	1366.021691	10.332000	-4.960000
	198.150333	1366.010963	10.294000	-4.990000
	198.250339	1366.014539	10.334000	-4.870000
	198.350345	1366.010963	10.320000	-4.930000
	198.450351	1366.010963	10.320000	-4.930000
	198.550356	1366.013347	10.314000	-4.880000
	198.650362	1366.031229	10.318000	-4.750000
	198.750368	1366.021693	10.312000	-4.980000
	198.850373	1366.007388	10.312000	-5.020000
	198.950379	1366.026463	10.326000	-4.740000
	199.050385	1366.022887	10.306000	-4.930000
	199.150391	1366.026463	10.306000	-4.870000
	199.250396	1366.028847	10.322000	-4.880000
	199.350402	1366.014543	10.312000	-5.020000
	199.450408	1366.015735	10.300000	-4.890000
	199.550414	1366.022888	10.310000	-4.840000
	199.650419	1366.012159	10.300000	-4.990000
	199.750425	1366.026465	10.298000	-4.780000
	199.850430	1366.041963	10.314000	-4.770000
	199.950437	1366.037195	10.280000	-4.940000
	200.050442	1366.037195	10.280000	-4.940000
	200.150448	1366.033618	10.298000	-4.930000
	200.250453	1366.022890	10.314000	-4.990000
	200.350459	1366.015738	10.320000	-4.960000
	200.450465	1366.026467	10.298000	-4.810000
	200.550471	1366.028851	10.316000	-4.880000
	200.650476	1366.024083	10.300000	-4.940000
	200.750482	1366.032428	10.312000	-4.830000
	200.850488	1366.028851	10.324000	-4.930000
	200.950494	1366.008587	10.300000	-5.070000
	201.050499	1366.013356	10.314000	-4.860000
	201.150505	1366.020508	10.322000	-4.840000
	201.250511	1366.021700	10.302000	-4.890000
	201.350516	1366.041967	10.306000	-4.730000
	201.450522	1366.030047	10.334000	-5.000000
	201.550528	1366.027663	10.298000	-4.920000
	201.650534	1366.047930	10.304000	-4.730000
	201.750539	1366.047930	10.304000	-4.730000
	201.850545	1366.040777	10.322000	-4.960000
	201.950551	1366.044354	10.304000	-4.870000
	202.050557	1366.051506	10.340000	-4.840000
	202.150562	1366.036010	10.314000	-5.030000
	202.250568	1366.027665	10.312000	-4.970000
	202.350574	1366.037202	10.330000	-4.820000
	202.450579	1366.038395	10.306000	-4.890000
	202.550585	1366.049124	10.288000	-4.810000
	202.650591	1366.057469	10.310000	-4.830000
	202.750597	1366.050316	10.322000	-4.960000
	202.850602	1366.043164	10.292000	-4.960000
	202.950608	1366.040780	10.288000	-4.920000
	203.050614	1366.038396	10.320000	-4.920000
	203.150620	1366.030051	10.292000	-4.970000
	203.250625	1366.031243	10.286000	-4.890000
	203.350631	1366.031243	10.286000	-4.890000
	203.450636	1366.028859	10.316000	-4.920000
	203.549642	1366.033627	10.302000	-4.860000
	203.650648	1366.020515	10.302000	-5.010000
	203.749654	1366.027668	10.320000	-4.840000
	203.849659	1366.027668	10.310000	-4.900000
	203.949665	1366.028860	10.286000	-4.890000
	204.049671	1366.044358	10.308000	-4.770000
	204.149676	1366.043166	10.312000	-4.910000
	204.249682	1366.037205	10.304000	-4.950000
	204.349688	1366.033629	10.320000	-4.930000
	204.449694	1366.036013	10.320000	-4.880000
	204.549699	1366.033629	10.286000	-4.920000
	204.649705	1366.038398	10.290000	-4.860000
	204.749711	1366.032437	10.314000	-4.950000
	204.849717	1366.032437	10.316000	-4.900000
	204.949722	1366.032437	10.316000	-4.900000
	205.049728	1366.037206	10.294000	-4.860000
	205.149734	1366.058665	10.306000	-4.720000
	205.249740	1366.046745	10.312000	-5.000000
	205.349745	1366.037208	10.304000	-4.980000
	205.449751	1366.031248	10.304000	-4.950000
	205.549757	1366.034824	10.320000	-4.870000
	205.649762	1366.021712	10.304000	-5.010000
	205.749768	1366.031249	10.296000	-4.820000
	205.849774	1366.053900	10.330000	-4.710000
	205.949780	1366.040788	10.322000	-5.010000
	206.049785	1366.038404	10.310000	-4.920000
	206.149791	1366.044364	10.312000	-4.850000
	206.249797	1366.040788	10.316000	-4.930000
	206.349802	1366.037212	10.318000	-4.930000
	206.449808	1366.039596	10.318000	-4.880000
	206.549814	1366.034828	10.322000	-4.940000
	206.649819	1366.030059	10.312000	-4.940000
	206.749825	1366.030059	10.312000	-4.940000
	206.849831	1366.014563	10.306000	-5.030000
	206.949837	1366.030061	10.328000	-4.770000
	207.049842	1366.026485	10.310000	-4.930000
	207.149848	1366.033637	10.294000	-4.840000
	207.249854	1366.037214	10.318000	-4.870000
	207.349860	1366.037214	10.304000	-4.900000
	207.449865	1366.026485	10.312000	-4.990000
	207.549871	1366.027677	10.276000	-4.890000
	207.649877	1366.025293	10.330000	-4.920000
	207.749883	1366.019333	10.326000	-4.950000
	207.849888	1366.021717	10.284000	-4.880000
	207.949894	1366.036023	10.324000	-4.780000
	208.049900	1366.031255	10.306000	-4.940000
	208.149905	1366.028870	10.302000	-4.920000
	208.249911	1366.028870	10.322000	-4.900000
	208.349917	1366.028870	10.322000	-4.900000
	208.449923	1366.024102	10.328000	-4.940000
	208.549928	1366.015758	10.314000	-4.970000
	208.649934	1366.018142	10.290000	-4.880000
	208.749940	1366.026487	10.330000	-4.830000
	208.849946	1366.022911	10.308000	-4.930000
	208.949951	1366.015758	10.324000	-4.960000
	209.049957	1366.018142	10.326000	-4.880000
	209.149962	1366.027679	10.320000	-4.820000
	209.249968	1366.020527	10.302000	-4.960000
	209.349974	1366.043178	10.300000	-4.710000
	209.449980	1366.045563	10.336000	-4.880000
	209.549985	1366.027682	10.314000	-5.050000
	209.649991	1366.020530	10.280000	-4.960000
	209.749997	1366.036028	10.322000	-4.770000
	209.850003	1366.024108	10.326000	-5.000000
	209.950008	1366.024108	10.326000	-5.000000
	210.050014	1366.025300	10.298000	-4.890000
	210.150020	1366.040798	10.302000	-4.770000
	210.250025	1366.049143	10.332000	-4.830000
	210.350031	1366.043182	10.306000	-4.950000
	210.450037	1366.041990	10.294000	-4.910000
	210.550043	1366.043182	10.318000	-4.890000
	210.650048	1366.034838	10.330000	-4.970000
	210.750054	1366.046759	10.312000	-4.800000
	210.854060	1366.064642	10.302000	-4.750000
	210.950066	1366.051529	10.328000	-5.010000
	211.050071	1366.039609	10.276000	-5.000000
	211.150077	1366.038417	10.304000	-4.910000
	211.250082	1366.039609	10.328000	-4.890000
	211.350089	1366.032456	10.316000	-4.960000
	211.450094	1366.032456	10.316000	-4.960000
	211.550100	1366.036033	10.304000	-4.870000
	211.650105	1366.041993	10.306000	-4.850000
	211.750111	1366.038417	10.316000	-4.930000
	211.853117	1366.038417	10.308000	-4.900000
	211.950123	1366.053915	10.302000	-4.770000
	212.050128	1366.053915	10.332000	-4.900000
	212.150134	1366.049147	10.292000	-4.940000
	212.250140	1366.053915	10.312000	-4.860000
	212.350146	1366.052723	10.312000	-4.910000
	212.450151	1366.041995	10.314000	-4.990000
	212.550157	1366.031266	10.302000	-4.990000
	212.650163	1366.055110	10.314000	-4.700000
	212.750168	1366.052726	10.322000	-4.920000
	212.850174	1366.047957	10.318000	-4.940000
	212.950180	1366.062263	10.304000	-4.780000
	213.050186	1366.062263	10.304000	-4.780000
	213.150191	1366.061071	10.322000	-4.910000
	213.250197	1366.043191	10.330000	-5.050000
	213.350203	1366.056305	10.288000	-4.790000
	213.450209	1366.072995	10.316000	-4.760000
	213.550214	1366.061074	10.308000	-5.000000
	213.650220	1366.046770	10.314000	-5.020000
	213.750226	1366.058691	10.306000	-4.800000
	213.850231	1366.055115	10.334000	-4.930000
	213.950237	1366.050347	10.300000	-4.940000
	214.050243	1366.049155	10.274000	-4.910000
	214.150249	1366.049155	10.328000	-4.900000
	214.250254	1366.044386	10.324000	-4.940000
	214.350260	1366.039618	10.290000	-4.940000
	214.451266	1366.039618	10.290000	-4.940000
	214.550272	1366.059885	10.324000	-4.730000
	214.653277	1366.053925	10.314000	-4.950000
	214.750283	1366.047964	10.316000	-4.950000
	214.850288	1366.051541	10.330000	-4.870000
	214.950294	1366.063462	10.314000	-4.800000
	215.050300	1366.062270	10.306000	-4.910000
	215.150306	1366.076576	10.296000	-4.780000
	215.250311	1366.065847	10.322000	-4.990000
	215.350317	1366.057503	10.322000	-4.970000
	215.450323	1366.069425	10.288000	-4.800000
	215.550329	1366.071809	10.304000	-4.880000
	215.650334	1366.058696	10.328000	-5.010000
	215.750340	1366.052736	10.304000	-4.950000
	215.855346	1366.053928	10.302000	-4.890000
	215.950352	1366.053928	10.302000	-4.890000
	216.060358	1366.053928	10.330000	-4.900000
	216.151363	1366.053928	10.322000	-4.900000
	216.254369	1366.052736	10.310000	-4.910000
	216.350374	1366.062273	10.310000	-4.820000
	216.450380	1366.053928	10.304000	-4.970000
	216.552386	1366.050352	10.304000	-4.930000
	216.655392	1366.059889	10.326000	-4.820000
	216.753397	1366.049161	10.300000	-4.990000
	216.855403	1366.037240	10.312000	-5.000000
	216.950408	1366.045585	10.324000	-4.830000
	217.050415	1366.053930	10.320000	-4.830000
	217.150420	1366.057506	10.302000	-4.870000
	217.250426	1366.068236	10.320000	-4.810000
	217.350431	1366.062275	10.300000	-4.950000
	217.450437	1366.058699	10.292000	-4.930000
	217.550443	1366.070621	10.300000	-4.800000
	217.650449	1366.070621	10.300000	-4.800000
	217.750454	1366.071813	10.334000	-4.890000
	217.850460	1366.059892	10.304000	-5.000000
	217.950466	1366.064661	10.290000	-4.860000
	218.050472	1366.070621	10.334000	-4.850000
	218.150477	1366.050357	10.312000	-5.070000
	218.250483	1366.061086	10.290000	-4.810000
	218.350489	1366.087315	10.312000	-4.680000
	218.450494	1366.068242	10.320000	-5.060000
	218.550500	1366.073011	10.320000	-4.860000
	218.650506	1366.090894	10.312000	-4.750000
	218.750512	1366.081357	10.324000	-4.980000
	218.850517	1366.069436	10.294000	-5.000000
	218.950523	1366.078974	10.306000	-4.820000
	219.050529	1366.071821	10.326000	-4.960000
	219.150535	1366.067053	10.298000	-4.940000
	219.250540	1366.078974	10.322000	-4.800000
	219.351546	1366.078974	10.322000	-4.800000
	219.453552	1366.077782	10.332000	-4.910000
	219.550558	1366.065861	10.312000	-5.000000
	219.650563	1366.063477	10.320000	-4.920000
	219.750569	1366.043213	10.330000	-5.070000
	219.850574	1366.045597	10.312000	-4.880000
	219.950580	1366.056326	10.310000	-4.810000
	220.050586	1366.064671	10.334000	-4.830000
	220.150592	1366.061095	10.314000	-4.930000
	220.250597	1366.070632	10.300000	-4.820000
	220.351603	1366.076593	10.332000	-4.850000
	220.450609	1366.088515	10.332000	-4.800000
	220.550614	1366.095668	10.316000	-4.840000
	220.650620	1366.112359	10.318000	-4.760000
	220.751626	1366.105206	10.346000	-4.960000
	220.850632	1366.095669	10.294000	-4.980000
	220.950637	1366.095669	10.294000	-4.980000
	221.049643	1366.088516	10.314000	-4.960000
	221.149649	1366.070636	10.328000	-5.050000
	221.251655	1366.051563	10.308000	-5.060000
	221.349660	1366.051563	10.344000	-4.900000
	221.449666	1366.039642	10.336000	-5.000000
	221.549672	1366.146982	10.304000	-4.000000
	221.651678	1366.247170	10.242000	-4.060000
	221.749683	1366.282943	10.110000	-4.600000
	221.849689	1366.329451	10.110000	-4.510000
	221.949695	1366.374769	10.150000	-4.520000
	222.049700	1366.392656	10.130000	-4.750000
	222.149706	1366.421277	10.132000	-4.660000
	222.250712	1366.441549	10.154000	-4.730000
	222.350718	1366.452282	10.116000	-4.810000
	222.449723	1366.471363	10.154000	-4.740000
	222.549729	1366.471363	10.154000	-4.740000
	222.649734	1366.467785	10.144000	-4.930000
	222.749741	1366.467785	10.134000	-4.900000
	222.849746	1366.473748	10.148000	-4.850000
	222.949752	1366.455862	10.114000	-5.050000
	223.049757	1366.459439	10.130000	-4.870000
	223.149763	1366.460632	10.168000	-4.890000
	223.251769	1366.463017	10.134000	-4.880000
	223.349775	1366.483290	10.150000	-4.730000
	223.449780	1366.496408	10.162000	-4.790000
	223.549786	1366.504756	10.138000	-4.830000
	223.649792	1366.517874	10.160000	-4.790000
	223.749798	1366.507142	10.124000	-4.990000
	223.849803	1366.519067	10.156000	-4.800000
	223.949809	1366.504758	10.146000	-5.020000
	224.049815	1366.509528	10.138000	-4.860000
	224.149820	1366.513105	10.148000	-4.870000
	224.249826	1366.513105	10.148000	-4.870000
	224.349832	1366.496411	10.140000	-5.040000
	224.449838	1366.514300	10.130000	-4.750000
	224.549843	1366.510722	10.162000	-4.930000
	224.649849	1366.510722	10.132000	-4.900000
	224.749855	1366.536960	10.140000	-4.680000
	224.849861	1366.521458	10.132000	-5.030000
	224.949866	1366.533384	10.150000	-4.800000
	225.049872	1366.511920	10.166000	-5.080000
	225.151878	1366.507150	10.132000	-4.940000
	225.249883	1366.499995	10.168000	-4.960000
	225.349889	1366.476147	10.136000	-5.100000
	225.449895	1366.478532	10.164000	-4.880000
	225.549901	1366.467800	10.138000	-4.990000
	225.649906	1366.473763	10.128000	-4.850000
	225.749912	1366.466608	10.174000	-4.960000
	225.849918	1366.470186	10.136000	-4.870000
	225.949924	1366.490459	10.148000	-4.730000
	226.049929	1366.490459	10.148000	-4.730000
	226.149935	1366.467804	10.138000	-5.090000
	226.249940	1366.459457	10.158000	-4.970000
	226.349946	1366.460649	10.152000	-4.890000
	226.449952	1366.465419	10.154000	-4.860000
	226.549958	1366.473767	10.140000	-4.830000
	226.649963	1366.465419	10.150000	-4.970000
	226.749969	1366.471382	10.156000	-4.850000
	226.849975	1366.476152	10.188000	-4.860000
	226.949981	1366.460651	10.146000	-5.030000
	227.058987	1366.474961	10.140000	-4.780000
	227.149992	1366.459460	10.162000	-5.030000
	227.251998	1366.464230	10.110000	-4.860000
	227.350004	1366.477347	10.164000	-4.790000
	227.450009	1366.477347	10.164000	-4.790000
	227.550015	1366.471385	10.140000	-4.950000
	227.650021	1366.477348	10.142000	-4.850000
	227.750026	1366.466616	10.160000	-4.990000
	227.850032	1366.479733	10.156000	-4.790000
	227.950038	1366.479733	10.180000	-4.900000
	228.050044	1366.478541	10.128000	-4.910000
	228.150049	1366.497622	10.150000	-4.740000
	228.250055	1366.495237	10.148000	-4.920000
	228.350060	1366.507162	10.148000	-4.800000
	228.450067	1366.521473	10.136000	-4.780000
	228.550072	1366.504779	10.136000	-5.040000
	228.650078	1366.516705	10.142000	-4.800000
	228.750083	1366.515512	10.160000	-4.910000
	228.850089	1366.515512	10.160000	-4.910000
	228.954095	1366.516705	10.122000	-4.890000
	229.050101	1366.529823	10.148000	-4.790000
	229.150106	1366.509551	10.126000	-5.070000
	229.250112	1366.510744	10.152000	-4.890000
	229.350118	1366.495242	10.158000	-5.030000
	229.500126	1366.501205	10.126000	-4.850000
	229.600132	1366.495242	10.152000	-4.950000
	229.700138	1366.479741	10.134000	-5.030000
	229.800144	1366.480933	10.140000	-4.890000
	229.900149	1366.469009	10.162000	-5.000000
	230.000155	1366.460662	10.132000	-4.970000
	230.100161	1366.466625	10.128000	-4.850000
	230.200167	1366.472587	10.152000	-4.850000
	230.300172	1366.472587	10.152000	-4.850000
	230.350175	1366.461855	10.136000	-4.990000
	230.500184	1366.472588	10.164000	-4.810000
	230.600189	1366.478550	10.166000	-4.850000
	230.700195	1366.485705	10.146000	-4.840000
	230.800201	1366.507172	10.132000	-4.720000
	230.900207	1366.516712	10.176000	-4.820000
	231.000212	1366.507172	10.140000	-4.980000
	231.100218	1366.505980	10.148000	-4.910000
	231.200224	1366.488093	10.156000	-5.050000
	231.300230	1366.480939	10.136000	-4.960000
	231.400235	1366.480939	10.136000	-4.960000
	231.500241	1366.494057	10.140000	-4.790000
	231.600246	1366.491672	10.138000	-4.920000
	231.700252	1366.477363	10.116000	-5.020000
	231.800258	1366.485710	10.138000	-4.830000
	231.900264	1366.476171	10.146000	-4.980000
	232.000269	1366.472593	10.120000	-4.930000
	232.100275	1366.472593	10.158000	-4.900000
	232.200281	1366.466631	10.160000	-4.950000
	232.306287	1366.449937	10.118000	-5.040000
	232.400292	1366.449937	10.118000	-5.040000
	232.500298	1366.457092	10.148000	-4.840000
	232.600304	1366.445168	10.152000	-5.000000
	232.701310	1366.447553	10.116000	-4.880000
	232.800315	1366.479753	10.144000	-4.630000
	232.900321	1366.469021	10.152000	-4.990000
	233.000327	1366.454713	10.138000	-5.020000
	233.100332	1366.474986	10.156000	-4.730000
	233.200338	1366.474986	10.150000	-4.900000
	233.300344	1366.474986	10.150000	-4.900000
	233.400350	1366.473793	10.116000	-4.910000
	233.500355	1366.485719	10.162000	-4.800000
	233.600361	1366.479756	10.146000	-4.950000
	233.700366	1366.502415	10.134000	-4.710000
	233.800373	1366.486914	10.164000	-5.030000
	233.900378	1366.479759	10.150000	-4.960000
	234.000384	1366.507189	10.122000	-4.670000
	234.100389	1366.503612	10.166000	-4.930000
	234.207396	1366.491687	10.142000	-5.000000
	234.300401	1366.486917	10.154000	-4.940000
	234.400407	1366.477378	10.152000	-4.980000
	234.500412	1366.477378	10.152000	-4.980000
	234.600418	1366.478570	10.112000	-4.890000
	234.700424	1366.486918	10.134000	-4.830000
	234.800430	1366.477378	10.148000	-4.980000
	234.903436	1366.489303	10.114000	-4.800000
	235.000441	1366.490496	10.158000	-4.890000
	235.103447	1366.491688	10.150000	-4.890000
	235.200452	1366.486919	10.148000	-4.940000
	235.300458	1366.478571	10.152000	-4.970000
	235.400464	1366.478571	10.152000	-4.970000
	235.500470	1366.455916	10.150000	-5.090000
	235.600475	1366.480960	10.130000	-4.690000
	235.700481	1366.469036	10.154000	-5.000000
	235.800487	1366.459496	10.128000	-4.980000
	235.900493	1366.467844	10.158000	-4.830000
	236.000498	1366.457112	10.152000	-4.990000
	236.104504	1366.463075	10.120000	-4.850000
	236.200510	1366.466652	10.162000	-4.870000
	236.300516	1366.469037	10.150000	-4.880000
	236.400521	1366.463075	10.148000	-4.950000
	236.500527	1366.463075	10.148000	-4.950000
	236.600533	1366.463075	10.156000	-4.900000
	236.700538	1366.467845	10.142000	-4.860000
	236.800544	1366.483348	10.160000	-4.770000
	236.950552	1366.494080	10.156000	-4.810000
	237.050559	1366.509584	10.138000	-4.770000
	237.150564	1366.523895	10.150000	-4.780000
	237.250570	1366.522702	10.144000	-4.910000
	237.350575	1366.534628	10.128000	-4.800000
	237.450581	1366.531050	10.168000	-4.930000
	237.500584	1366.531050	10.168000	-4.930000
	237.650593	1366.523895	10.130000	-4.960000
	237.750598	1366.546555	10.154000	-4.710000
	237.850604	1366.538208	10.162000	-4.970000
	237.950610	1366.548941	10.124000	-4.810000
	238.050616	1366.551326	10.186000	-4.880000
	238.150621	1366.539401	10.158000	-5.000000
	238.250627	1366.545364	10.144000	-4.850000
	238.350633	1366.533439	10.170000	-5.000000
	238.451639	1366.535824	10.138000	-4.880000
	238.549644	1366.535824	10.138000	-4.880000
	238.649650	1366.551328	10.158000	-4.770000
	238.749656	1366.550135	10.138000	-4.910000
	238.849661	1366.568024	10.136000	-4.750000
	238.949667	1366.571602	10.150000	-4.870000
	239.049673	1366.570410	10.142000	-4.910000
	239.149678	1366.558485	10.162000	-5.000000
	239.249684	1366.546560	10.114000	-5.000000
	239.349690	1366.556100	10.142000	-4.820000
	239.452696	1366.550138	10.132000	-4.950000
	239.549701	1366.550138	10.132000	-4.950000
	239.649707	1366.569220	10.144000	-4.740000
	239.765714	1366.563257	10.144000	-4.950000
	239.849719	1366.564450	10.106000	-4.890000
	239.949724	1366.576376	10.164000	-4.800000
	240.049730	1366.548949	10.116000	-5.130000
	240.149735	1366.556105	10.136000	-4.840000
	240.250741	1366.552527	10.138000	-4.930000
	240.349747	1366.568031	10.132000	-4.770000
	240.449753	1366.559683	10.176000	-4.970000
	240.549758	1366.550143	10.120000	-4.980000
	240.649764	1366.550143	10.120000	-4.980000
	240.749770	1366.552528	10.152000	-4.880000
	240.849776	1366.545373	10.118000	-4.960000
	240.949781	1366.564455	10.162000	-4.740000
	241.049787	1366.573996	10.122000	-4.820000
	241.149793	1366.577574	10.170000	-4.870000
	241.249798	1366.558494	10.112000	-5.060000
	241.355804	1366.560879	10.172000	-4.880000
	241.449810	1366.545377	10.138000	-5.030000
	241.549816	1366.544184	10.156000	-4.910000
	241.650822	1366.528682	10.118000	-5.030000
	241.749827	1366.538223	10.160000	-4.820000
	241.849833	1366.525106	10.136000	-5.010000
	241.949839	1366.531068	10.142000	-4.850000
	242.049844	1366.529876	10.130000	-4.910000
	242.149850	1366.529876	10.130000	-4.910000
	242.250856	1366.537031	10.132000	-4.840000
	242.349862	1366.527491	10.118000	-4.980000
	242.449867	1366.548958	10.138000	-4.720000
	242.549873	1366.539418	10.126000	-4.980000
	242.649879	1366.540611	10.146000	-4.890000
	242.749884	1366.527494	10.170000	-5.010000
	242.849890	1366.538227	10.154000	-4.810000
	242.949896	1366.527494	10.152000	-4.990000
	243.049901	1366.520339	10.134000	-4.960000
	243.149907	1366.537036	10.154000	-4.760000
	243.254913	1366.533458	10.140000	-4.930000
	243.349919	1366.550155	10.124000	-4.760000
	243.450924	1366.550155	10.124000	-4.760000
	243.549930	1366.556117	10.164000	-4.850000
	243.649936	1366.568043	10.124000	-4.800000
	243.749941	1366.576392	10.152000	-4.830000
	243.849947	1366.579969	10.126000	-4.870000
	243.951953	1366.605016	10.158000	-4.690000
	244.049959	1366.590705	10.152000	-5.020000
	244.149964	1366.572818	10.130000	-5.050000
	244.249970	1366.575203	10.154000	-4.880000
	244.349976	1366.563278	10.138000	-5.000000
	244.449982	1366.563278	10.138000	-5.000000
	244.549987	1366.576397	10.142000	-4.790000
	244.649993	1366.577589	10.144000	-4.890000
	244.749999	1366.579974	10.136000	-4.880000
	244.850005	1366.588322	10.172000	-4.830000
	244.950010	1366.562088	10.130000	-5.120000
	245.050016	1366.562088	10.160000	-4.900000
	245.154022	1366.544201	10.150000	-5.050000
	245.250027	1366.545394	10.134000	-4.890000
	245.350033	1366.548971	10.152000	-4.870000
	245.450039	1366.523930	10.136000	-5.110000
	245.550045	1366.523930	10.136000	-5.110000
	245.700053	1366.534663	10.170000	-4.810000
	245.800059	1366.520354	10.144000	-5.020000
	245.900064	1366.517969	10.130000	-4.920000
	246.000070	1366.509621	10.140000	-4.970000
	246.102076	1366.504851	10.128000	-4.940000
	246.200082	1366.516777	10.156000	-4.800000
	246.300087	1366.504852	10.128000	-5.000000
	246.400093	1366.519163	10.148000	-4.780000
	246.500099	1366.515586	10.156000	-4.930000
	246.550102	1366.515586	10.156000	-4.930000
	246.700110	1366.512008	10.128000	-4.930000
	246.800116	1366.516778	10.160000	-4.860000
	246.900122	1366.494122	10.124000	-5.090000
	247.000127	1366.491737	10.140000	-4.920000
	247.100133	1366.482198	10.142000	-4.980000
	247.200139	1366.496508	10.130000	-4.780000
	247.300145	1366.491738	10.156000	-4.940000
	247.400150	1366.477429	10.126000	-5.020000
	247.500156	1366.477429	10.126000	-5.020000
	247.600162	1366.486969	10.168000	-4.820000
	247.700168	1366.472660	10.108000	-5.020000
	247.800173	1366.492934	10.150000	-4.730000
	247.900179	1366.485779	10.148000	-4.960000
	248.000185	1366.498897	10.128000	-4.790000
	248.100190	1366.503667	10.164000	-4.860000
	248.200196	1366.503667	10.160000	-4.900000
	248.300202	1366.497705	10.146000	-4.950000
	248.400208	1366.484588	10.116000	-5.010000
	248.505213	1366.488166	10.160000	-4.870000
	248.600219	1366.488166	10.160000	-4.870000
	248.700225	1366.483396	10.118000	-4.940000
	248.800231	1366.507247	10.166000	-4.700000
	248.900236	1366.496515	10.140000	-4.990000
	249.000242	1366.502478	10.142000	-4.850000
	249.100247	1366.494131	10.140000	-4.970000
	249.200253	1366.508441	10.144000	-4.780000
	249.300259	1366.497709	10.174000	-4.990000
	249.400265	1366.496517	10.120000	-4.910000
	249.500270	1366.496517	10.120000	-4.910000
	249.600276	1366.501287	10.172000	-4.860000
	249.700282	1366.489362	10.114000	-5.000000
	249.800288	1366.500095	10.138000	-4.810000
	249.900293	1366.495325	10.142000	-4.940000
	250.000299	1366.510829	10.140000	-4.770000
	250.100305	1366.501289	10.146000	-4.980000
	250.200311	1366.508444	10.114000	-4.840000
	250.300316	1366.495327	10.140000	-5.010000
	250.405322	1366.502482	10.124000	-4.840000
	250.500328	1366.502482	10.124000	-4.840000
	250.600333	1366.498905	10.178000	-4.930000
	250.700339	1366.495327	10.116000	-4.930000
	250.800345	1366.489365	10.152000	-4.950000
	250.900351	1366.486980	10.134000	-4.920000
	251.000356	1366.497713	10.148000	-4.810000
	251.100362	1366.494135	10.120000	-4.930000
	251.200367	1366.502483	10.152000	-4.830000
	251.300374	1366.486982	10.128000	-5.030000
	251.400379	1366.486982	10.128000	-5.030000
	251.500385	1366.491752	10.132000	-4.860000
	251.600390	1366.473865	10.142000	-5.050000
	251.700396	1366.489368	10.138000	-4.770000
	251.800402	1366.476252	10.146000	-5.010000
	251.900408	1366.488177	10.126000	-4.800000
	252.000413	1366.481022	10.146000	-4.960000
	252.100419	1366.478637	10.138000	-4.920000
	252.200425	1366.478637	10.154000	-4.900000
	252.304431	1366.477445	10.124000	-4.910000
	252.400436	1366.477445	10.124000	-4.910000
	252.500442	1366.503682	10.174000	-4.680000
	252.600448	1366.491757	10.138000	-5.000000
	252.700453	1366.513224	10.172000	-4.720000
	252.800459	1366.516802	10.128000	-4.870000
	252.900465	1366.531112	10.158000	-4.780000
	253.000471	1366.512033	10.128000	-5.060000
	253.100476	1366.521574	10.136000	-4.820000
	253.200482	1366.504880	10.152000	-5.040000
	253.300488	1366.504880	10.152000	-5.040000
	253.400494	1366.533503	10.144000	-4.660000
	253.500499	1366.521578	10.144000	-5.000000
	253.600505	1366.540660	10.148000	-4.740000
	253.700511	1366.537082	10.160000	-4.930000
	253.800517	1366.553778	10.128000	-4.760000
	253.900522	1366.543046	10.146000	-4.990000
	254.000528	1366.557357	10.136000	-4.780000
	254.100533	1366.556165	10.160000	-4.910000
	254.200539	1366.564513	10.124000	-4.830000
	254.300545	1366.550203	10.170000	-5.020000
	254.400551	1366.550203	10.170000	-5.020000
	254.500556	1366.544240	10.114000	-4.950000
	254.600562	1366.537085	10.142000	-4.960000
	254.700568	1366.541855	10.140000	-4.860000
	254.800573	1366.528738	10.170000	-5.010000
	254.900579	1366.525161	10.112000	-4.930000
	255.000585	1366.516813	10.152000	-4.970000
	255.100591	1366.514428	10.112000	-4.920000
	255.200596	1366.521584	10.166000	-4.840000
	255.300602	1366.509659	10.116000	-5.000000
	255.400608	1366.509659	10.116000	-5.000000
	255.500614	1366.508466	10.182000	-4.910000
	255.600619	1366.515622	10.104000	-4.840000
	255.700625	1366.523969	10.158000	-4.830000
	255.800631	1366.543051	10.128000	-4.740000
	255.900637	1366.554977	10.158000	-4.800000
	255.999642	1366.562132	10.138000	-4.840000
	256.103648	1366.558555	10.162000	-4.930000
	256.199654	1366.556170	10.114000	-4.920000
	256.299659	1366.558555	10.164000	-4.880000
	256.399665	1366.558555	10.164000	-4.880000
	256.499671	1366.569288	10.116000	-4.810000
	256.599677	1366.563326	10.168000	-4.950000
	256.699682	1366.562133	10.114000	-4.910000
	256.799688	1366.568096	10.176000	-4.850000
	256.899693	1366.575251	10.126000	-4.840000
	256.999700	1366.574059	10.164000	-4.910000
	257.099705	1366.583600	10.116000	-4.820000
	257.199711	1366.571674	10.164000	-5.000000
	257.299716	1366.576445	10.108000	-4.860000
	257.399722	1366.576445	10.108000	-4.860000
	257.499728	1366.563327	10.164000	-5.010000
	257.599734	1366.572868	10.122000	-4.820000
	257.699739	1366.569290	10.158000	-4.930000
	257.799745	1366.568098	10.120000	-4.910000
	257.899751	1366.549018	10.152000	-5.060000
	258.005757	1366.543056	10.124000	-4.950000
	258.099762	1366.520399	10.154000	-5.090000
	258.199768	1366.523977	10.110000	-4.870000
	258.299774	1366.512052	10.162000	-5.000000
	258.399779	1366.512052	10.162000	-5.000000
	258.499785	1366.523978	10.140000	-4.800000
	258.599791	1366.503706	10.154000	-5.070000
	258.699797	1366.510862	10.128000	-4.840000
	258.799802	1366.502514	10.142000	-4.970000
	258.949811	1366.522788	10.148000	-4.730000
	258.999814	1366.498940	10.148000	-5.100000
	259.099820	1366.512058	10.150000	-4.790000
	259.199825	1366.485825	10.152000	-5.120000
	259.299831	1366.502521	10.142000	-4.760000
	259.399837	1366.502521	10.142000	-4.760000
	259.549845	1366.485827	10.140000	-5.040000
	259.649851	1366.488212	10.156000	-4.880000
	259.749856	1366.475095	10.140000	-5.010000
	259.849863	1366.500140	10.134000	-4.690000
	259.949868	1366.485831	10.130000	-5.020000
	260.049874	1366.508490	10.146000	-4.710000
	260.149879	1366.500143	10.124000	-4.970000
	260.249885	1366.518031	10.156000	-4.750000
	260.350891	1366.518031	10.156000	-4.750000
	260.449897	1366.510876	10.126000	-4.960000
	260.549902	1366.521609	10.162000	-4.810000
	260.649908	1366.507300	10.134000	-5.020000
	260.701911	1366.525189	10.150000	-4.750000
	260.849920	1366.519226	10.152000	-4.950000
	260.913923	1366.541886	10.138000	-4.710000
	261.049931	1366.538308	10.148000	-4.930000
	261.099934	1366.540693	10.158000	-4.880000
	261.250943	1366.540693	10.158000	-4.880000
	261.299945	1366.512075	10.128000	-5.140000
	261.449954	1366.527579	10.162000	-4.770000
	261.549960	1366.537119	10.116000	-4.820000
	261.649965	1366.515655	10.172000	-5.080000
	261.749971	1366.531159	10.134000	-4.770000
	261.849977	1366.525197	10.160000	-4.950000
	261.949983	1366.527582	10.176000	-4.880000
	262.049988	1366.513272	10.100000	-5.020000
	262.149994	1366.506117	10.154000	-4.960000
	262.199997	1366.512080	10.132000	-4.850000
	262.450011	1366.508502	10.114000	-4.930000
	262.550017	1366.510887	10.154000	-4.880000
	262.650023	1366.497770	10.128000	-5.010000
	262.752028	1366.497770	10.160000	-4.900000
	262.850034	1366.524008	10.126000	-4.680000
	262.955040	1366.525201	10.146000	-4.890000
	263.050045	1366.547860	10.124000	-4.710000
	263.150051	1366.537128	10.142000	-4.990000
	263.250057	1366.557402	10.146000	-4.730000
	263.350062	1366.560980	10.134000	-4.870000
	263.454069	1366.559788	10.176000	-4.910000
	263.550074	1366.559788	10.176000	-4.910000
	263.650080	1366.562173	10.126000	-4.880000
	263.753086	1366.537131	10.128000	-5.110000
	263.850091	1366.550250	10.160000	-4.790000
	263.950097	1366.546672	10.126000	-4.930000
	264.050103	1366.547865	10.170000	-4.890000
	264.150108	1366.546672	10.132000	-4.910000
	264.250114	1366.533555	10.144000	-5.010000
	264.350120	1366.549059	10.132000	-4.770000
	264.500128	1366.526402	10.120000	-5.090000
	264.603134	1366.529980	10.166000	-4.870000
	264.750143	1366.522825	10.124000	-4.960000
	264.850148	1366.503746	10.178000	-5.060000
	264.900151	1366.519249	10.144000	-4.770000
	265.050160	1366.488247	10.118000	-5.160000
	265.152166	1366.491825	10.160000	-4.870000
	265.250171	1366.477516	10.132000	-5.020000
	265.353177	1366.484671	10.170000	-4.840000
	265.450183	1366.470362	10.126000	-5.020000
	265.552188	1366.470362	10.126000	-5.020000
	265.651194	1366.489443	10.158000	-4.740000
	265.752200	1366.470364	10.148000	-5.060000
	265.850205	1366.479904	10.180000	-4.820000
	265.951211	1366.488252	10.106000	-4.830000
	266.050217	1366.482289	10.178000	-4.950000
	266.150223	1366.500178	10.128000	-4.750000
	266.250228	1366.487061	10.148000	-5.010000
	266.350234	1366.504949	10.152000	-4.750000
	266.450240	1366.490640	10.106000	-5.020000
	266.550246	1366.489448	10.170000	-4.910000
	266.650251	1366.489448	10.170000	-4.910000
	266.750257	1366.497795	10.140000	-4.830000
	266.850263	1366.483486	10.132000	-5.020000
	266.950268	1366.496604	10.162000	-4.790000
	267.050274	1366.478718	10.116000	-5.050000
	267.150280	1366.478718	10.150000	-4.900000
	267.250286	1366.488258	10.144000	-4.820000
	267.351292	1366.473949	10.142000	-5.020000
	267.450297	1366.484682	10.162000	-4.810000
	267.550303	1366.485874	10.130000	-4.890000
	267.650309	1366.491837	10.154000	-4.850000
	267.750314	1366.493029	10.140000	-4.890000
	267.851320	1366.484682	10.134000	-4.970000
	267.953326	1366.493030	10.166000	-4.830000
	268.052331	1366.493030	10.166000	-4.830000
	268.153337	1366.490645	10.118000	-4.920000
	268.252343	1366.481105	10.158000	-4.980000
	268.353349	1366.475143	10.118000	-4.950000
	268.450354	1366.472758	10.168000	-4.920000
	268.553360	1366.483491	10.118000	-4.810000
	268.650366	1366.472759	10.152000	-4.990000
	268.750371	1366.490647	10.174000	-4.750000
	268.850377	1366.482300	10.130000	-4.970000
	268.950383	1366.467991	10.162000	-5.020000
	269.050389	1366.485879	10.140000	-4.750000
	269.150394	1366.469185	10.146000	-5.040000
	269.250400	1366.469185	10.146000	-5.040000
	269.350406	1366.496615	10.144000	-4.670000
	269.450411	1366.488268	10.136000	-4.970000
	269.550417	1366.497808	10.170000	-4.820000
	269.650423	1366.506156	10.120000	-4.830000
	269.752429	1366.482308	10.132000	-5.100000
	269.850434	1366.499003	10.144000	-4.760000
	269.951440	1366.495426	10.120000	-4.930000
	270.050446	1366.489464	10.176000	-4.950000
	270.152452	1366.503774	10.122000	-4.780000
	270.250457	1366.484695	10.158000	-5.060000
	270.350463	1366.504969	10.146000	-4.730000
	270.450469	1366.491852	10.148000	-5.010000
	270.550474	1366.499007	10.160000	-4.840000
	270.650480	1366.499007	10.160000	-4.840000
	270.750486	1366.490660	10.114000	-4.970000
	270.850492	1366.482313	10.168000	-4.970000
	270.958498	1366.483506	10.134000	-4.890000
	271.050503	1366.468004	10.122000	-5.030000
	271.150509	1366.483507	10.146000	-4.770000
	271.250515	1366.482315	10.120000	-4.910000
	271.350520	1366.473968	10.150000	-4.970000
	271.500529	1366.495434	10.134000	-4.720000
	271.600534	1366.479932	10.140000	-5.030000
	271.700540	1366.477547	10.168000	-4.920000
	271.800546	1366.485895	10.126000	-4.830000
	271.900552	1366.473971	10.148000	-5.000000
	272.000557	1366.484703	10.162000	-4.810000
	272.100563	1366.491858	10.122000	-4.840000
	272.200569	1366.469203	10.176000	-5.090000
	272.300574	1366.483513	10.162000	-4.780000
	272.400580	1366.471589	10.122000	-5.000000
	272.500586	1366.473974	10.180000	-4.880000
	272.600592	1366.501404	10.140000	-4.670000
	272.700597	1366.501404	10.140000	-4.670000
	272.800603	1366.487095	10.142000	-5.020000
	272.900609	1366.504983	10.190000	-4.750000
	273.000615	1366.506176	10.120000	-4.890000
	273.100620	1366.490674	10.124000	-5.030000
	273.200626	1366.501407	10.156000	-4.810000
	273.300632	1366.497829	10.128000	-4.930000
	273.400638	1366.488290	10.150000	-4.980000
	273.499643	1366.495445	10.156000	-4.840000
	273.549646	1366.469212	10.162000	-5.120000
	273.699655	1366.479945	10.184000	-4.810000
	273.799660	1366.495448	10.124000	-4.770000
	273.901666	1366.491871	10.164000	-4.930000
	273.949669	1366.491871	10.164000	-4.930000
	274.149680	1366.490678	10.126000	-4.910000
	274.249686	1366.482331	10.172000	-4.970000
	274.349692	1366.499027	10.164000	-4.760000
	274.449697	1366.489487	10.140000	-4.980000
	274.549703	1366.479948	10.180000	-4.980000
	274.599706	1366.479948	10.180000	-4.980000
	274.810718	1366.469216	10.126000	-4.990000
	274.949726	1366.468023	10.130000	-4.910000
	274.999729	1366.469216	10.174000	-4.890000
	275.199740	1366.481141	10.136000	-4.800000
	275.299746	1366.472794	10.158000	-4.970000
	275.399752	1366.491875	10.160000	-4.740000
	275.499757	1366.469219	10.142000	-5.090000
	275.599763	1366.496649	10.196000	-4.670000
	275.699769	1366.513345	10.138000	-4.760000
	275.800775	1366.501420	10.164000	-5.000000
	275.899780	1366.508575	10.116000	-4.840000
	275.999786	1366.494266	10.144000	-5.020000
	276.101792	1366.502614	10.160000	-4.830000
	276.199798	1366.502614	10.160000	-4.830000
	276.299803	1366.494267	10.136000	-4.970000
	276.399809	1366.493074	10.168000	-4.910000
	276.499815	1366.514541	10.156000	-4.720000
	276.599821	1366.502616	10.118000	-5.000000
	276.699826	1366.506194	10.182000	-4.870000
	276.799832	1366.522890	10.128000	-4.760000
	276.899837	1366.508580	10.122000	-5.020000
	276.999843	1366.509773	10.150000	-4.890000
	277.099849	1366.507388	10.134000	-4.920000
	277.199855	1366.490694	10.152000	-5.040000
	277.299860	1366.501427	10.156000	-4.810000
	277.399866	1366.505004	10.142000	-4.870000
	277.499872	1366.482348	10.148000	-5.090000
	277.599877	1366.501429	10.168000	-4.740000
	277.699883	1366.494275	10.138000	-4.960000
	277.799889	1366.488312	10.144000	-4.950000
	277.899895	1366.488312	10.144000	-4.950000
	277.999900	1366.502623	10.160000	-4.780000
	278.099906	1366.495468	10.114000	-4.960000
	278.199912	1366.478774	10.164000	-5.040000
	278.299918	1366.479967	10.136000	-4.890000
	278.399923	1366.465658	10.134000	-5.020000
	278.499929	1366.488317	10.178000	-4.710000
	278.599935	1366.503820	10.110000	-4.770000
	278.699941	1366.494280	10.154000	-4.980000
	278.799946	1366.509783	10.158000	-4.770000
	278.899952	1366.500244	10.118000	-4.980000
	278.999958	1366.478780	10.164000	-5.080000
	279.099963	1366.489513	10.148000	-4.810000
	279.199969	1366.477589	10.126000	-5.000000
	279.299975	1366.465664	10.174000	-5.000000
	279.399981	1366.489516	10.132000	-4.700000
	279.499986	1366.479976	10.144000	-4.980000
	279.599992	1366.479976	10.144000	-4.980000
	279.699998	1366.494287	10.176000	-4.780000
	279.800004	1366.503827	10.114000	-4.820000
	279.900009	1366.497865	10.130000	-4.950000
	280.000015	1366.505020	10.194000	-4.840000
	280.100020	1366.490711	10.128000	-5.020000
	280.200027	1366.483556	10.148000	-4.960000
	280.300032	1366.496674	10.162000	-4.790000
	280.400038	1366.485942	10.116000	-4.990000
	280.500043	1366.483557	10.168000	-4.920000
	280.600049	1366.507409	10.136000	-4.700000
	280.700055	1366.495484	10.126000	-5.000000
	280.800061	1366.485945	10.176000	-4.980000
	280.900066	1366.490715	10.146000	-4.860000
	281.000072	1366.466867	10.142000	-5.100000
	281.100078	1366.468059	10.172000	-4.890000
	281.200084	1366.468059	10.172000	-4.890000
	281.300089	1366.464482	10.132000	-4.930000
	281.400095	1366.447788	10.140000	-5.040000
	281.500101	1366.460906	10.170000	-4.790000
	281.600106	1366.477602	10.138000	-4.760000
	281.700112	1366.476409	10.182000	-4.910000
	281.800118	1366.500261	10.144000	-4.700000
	281.900124	1366.494298	10.110000	-4.950000
	282.000129	1366.497876	10.172000	-4.870000
	282.100135	1366.521728	10.134000	-4.700000
	282.200141	1366.505034	10.134000	-5.040000
	282.300147	1366.507419	10.158000	-4.880000
	282.400152	1366.506226	10.132000	-4.910000
	282.500158	1366.499071	10.174000	-4.960000
	282.600163	1366.530080	10.136000	-4.640000
	282.700170	1366.530080	10.136000	-4.640000
	282.800175	1366.525310	10.120000	-4.940000
	282.900181	1366.531273	10.174000	-4.850000
	283.000186	1366.553933	10.138000	-4.710000
	283.100192	1366.530084	10.148000	-5.100000
	283.200198	1366.532469	10.166000	-4.880000
	283.300204	1366.522929	10.114000	-4.980000
	283.400209	1366.501465	10.166000	-5.080000
	283.500215	1366.526510	10.152000	-4.690000
	283.600221	1366.503854	10.122000	-5.090000
	283.700227	1366.512202	10.190000	-4.830000
	283.800232	1366.513394	10.128000	-4.890000
	283.900238	1366.487162	10.136000	-5.120000
	284.000244	1366.490739	10.160000	-4.870000
	284.100249	1366.493124	10.128000	-4.880000
	284.200255	1366.493124	10.128000	-4.880000
	284.300261	1366.482392	10.174000	-4.990000
	284.400267	1366.487162	10.136000	-4.860000
	284.500272	1366.466891	10.146000	-5.070000
	284.600278	1366.475239	10.176000	-4.830000
	284.700284	1366.477624	10.122000	-4.880000
	284.800290	1366.462122	10.164000	-5.030000
	284.900295	1366.487167	10.152000	-4.690000
	285.000301	1366.490744	10.136000	-4.870000
	285.100307	1366.475243	10.180000	-5.030000
	285.200313	1366.482398	10.138000	-4.840000
	285.300318	1366.468089	10.140000	-5.020000
	285.400324	1366.480014	10.170000	-4.800000
	285.500329	1366.494324	10.120000	-4.780000
	285.600335	1366.476438	10.132000	-5.050000
	285.650338	1366.476438	10.132000	-5.050000
	285.800347	1366.491941	10.158000	-4.770000
	285.900352	1366.482402	10.138000	-4.980000
	286.000358	1366.475247	10.166000	-4.960000
	286.100364	1366.489557	10.136000	-4.780000
	286.200369	1366.466902	10.150000	-5.090000
	286.300375	1366.485983	10.162000	-4.740000
	286.400381	1366.505064	10.114000	-4.740000
	286.500387	1366.501486	10.162000	-4.930000
	286.600392	1366.516990	10.158000	-4.770000
	286.700398	1366.496719	10.156000	-5.070000
	286.800404	1366.493141	10.144000	-4.930000
	286.900410	1366.491949	10.132000	-4.910000
	287.000415	1366.477639	10.148000	-5.020000
	287.100421	1366.499106	10.162000	-4.720000
	287.200427	1366.488374	10.124000	-4.990000
	287.300433	1366.489566	10.182000	-4.890000
	287.400438	1366.489566	10.182000	-4.890000
	287.500444	1366.501492	10.122000	-4.800000
	287.600450	1366.487182	10.136000	-5.020000
	287.700455	1366.488375	10.174000	-4.890000
	287.800461	1366.494337	10.136000	-4.850000
	287.900467	1366.480028	10.148000	-5.020000
	288.000473	1366.501495	10.166000	-4.720000
	288.100478	1366.505072	10.134000	-4.870000
	288.200484	1366.505072	10.160000	-4.900000
	288.300490	1366.511035	10.152000	-4.850000
	288.400496	1366.496726	10.164000	-5.020000
	288.500501	1366.508651	10.160000	-4.800000
	288.600507	1366.515806	10.142000	-4.840000
	288.700512	1366.515806	10.156000	-4.900000
	288.800519	1366.543237	10.152000	-4.670000
	288.900524	1366.539659	10.126000	-4.930000
	289.000530	1366.539659	10.126000	-4.930000
	289.100535	1366.542044	10.188000	-4.880000
	289.200541	1366.542044	10.142000	-4.900000
	289.300547	1366.524158	10.146000	-5.050000
	289.400553	1366.530120	10.180000	-4.850000
	289.501558	1366.524158	10.112000	-4.950000
	289.600564	1366.495540	10.126000	-5.140000
	289.700570	1366.503888	10.182000	-4.830000
	289.800575	1366.502695	10.142000	-4.910000
	289.900581	1366.481232	10.172000	-5.080000
	290.000587	1366.496735	10.146000	-4.770000
	290.100593	1366.475272	10.136000	-5.080000
	290.200598	1366.484812	10.178000	-4.820000
	290.300604	1366.500315	10.134000	-4.770000
	290.400610	1366.487198	10.144000	-5.010000
	290.500616	1366.491968	10.150000	-4.860000
	290.600621	1366.491968	10.150000	-4.860000
	290.700627	1366.475275	10.112000	-5.040000
	290.800632	1366.476467	10.178000	-4.890000
	290.900639	1366.480044	10.150000	-4.870000
	290.999644	1366.458581	10.152000	-5.080000
	291.099650	1366.476470	10.184000	-4.750000
	291.199656	1366.483625	10.122000	-4.840000
	291.299661	1366.486010	10.174000	-4.880000
	291.399667	1366.488395	10.144000	-4.880000
	291.499673	1366.482432	10.118000	-4.950000
	291.599679	1366.482432	10.164000	-4.900000
	291.699684	1366.482432	10.134000	-4.900000
	291.799690	1366.478855	10.144000	-4.930000
	291.899695	1366.499129	10.166000	-4.730000
	291.999701	1366.489589	10.128000	-4.980000
	292.099707	1366.478857	10.204000	-4.990000
	292.199713	1366.499131	10.146000	-4.730000
	292.299718	1366.499131	10.146000	-4.730000
	292.399724	1366.476475	10.154000	-5.090000
	292.499730	1366.497941	10.166000	-4.720000
	292.599736	1366.497941	10.122000	-4.900000
	292.699741	1366.491979	10.182000	-4.950000
	292.799747	1366.507482	10.146000	-4.770000
	292.899753	1366.481250	10.154000	-5.120000
	292.999759	1366.493175	10.164000	-4.800000
	293.099764	1366.500330	10.124000	-4.840000
	293.199770	1366.494368	10.166000	-4.950000
	293.299776	1366.512256	10.136000	-4.750000
	293.399781	1366.502717	10.172000	-4.980000
	293.499787	1366.522991	10.146000	-4.730000
	293.599793	1366.499142	10.146000	-5.100000
	293.699799	1366.494372	10.162000	-4.940000
	293.801804	1366.494372	10.162000	-4.940000
	293.899810	1366.501528	10.130000	-4.840000
	293.999815	1366.476487	10.148000	-5.110000
	294.099822	1366.493183	10.170000	-4.760000
	294.199827	1366.484836	10.122000	-4.970000
	294.299833	1366.478873	10.168000	-4.950000
	294.399838	1366.500340	10.126000	-4.720000
	294.499844	1366.484838	10.146000	-5.030000
	294.599850	1366.493186	10.170000	-4.830000
	294.699856	1366.490801	10.124000	-4.920000
	294.799861	1366.482454	10.178000	-4.970000
	294.899867	1366.490801	10.154000	-4.830000
	294.999873	1366.470531	10.174000	-5.070000
	295.099879	1366.494382	10.136000	-4.700000
	295.200884	1366.481265	10.154000	-5.010000
	295.299890	1366.481265	10.154000	-5.010000
	295.400896	1366.489613	10.136000	-4.830000
	295.499901	1366.478881	10.134000	-4.990000
	295.599907	1366.480073	10.166000	-4.890000
	295.699913	1366.487229	10.140000	-4.840000
	295.799919	1366.477689	10.142000	-4.980000
	295.899924	1366.496770	10.140000	-4.740000
	295.999930	1366.478884	10.128000	-5.050000
	296.099936	1366.488424	10.178000	-4.820000
	296.199942	1366.490809	10.124000	-4.880000
	296.299947	1366.492001	10.164000	-4.890000
	296.406953	1366.509890	10.166000	-4.750000
	296.499959	1366.503928	10.160000	-4.950000
	296.599965	1366.507505	10.184000	-4.870000
	296.699970	1366.502735	10.110000	-4.940000
	296.799976	1366.505120	10.186000	-4.880000
	296.899981	1366.505120	10.186000	-4.880000
	296.999987	1366.492003	10.136000	-5.010000
	297.099993	1366.486041	10.170000	-4.950000
	297.199999	1366.499159	10.154000	-4.790000
	297.305005	1366.471734	10.152000	-5.130000
	297.400010	1366.494393	10.132000	-4.710000
	297.500016	1366.475314	10.160000	-5.060000
	297.601022	1366.483662	10.152000	-4.830000
	297.700027	1366.499165	10.182000	-4.770000
	297.800033	1366.515861	10.142000	-4.760000
	297.900039	1366.515861	10.142000	-4.760000
	298.000044	1366.512284	10.188000	-4.930000
	298.150053	1366.494397	10.116000	-5.050000
	298.250059	1366.502745	10.162000	-4.830000
	298.350064	1366.503937	10.126000	-4.890000
	298.450070	1366.492013	10.180000	-5.000000
	298.550076	1366.489628	10.134000	-4.920000
	298.650082	1366.471742	10.168000	-5.050000
	298.750087	1366.481282	10.132000	-4.820000
	298.850093	1366.463396	10.152000	-5.050000
	298.950099	1366.480091	10.158000	-4.760000
	299.050105	1366.471744	10.146000	-4.970000
	299.150110	1366.495596	10.162000	-4.700000
	299.250116	1366.486056	10.114000	-4.980000
	299.350121	1366.494404	10.164000	-4.830000
	299.450128	1366.494404	10.164000	-4.830000
	299.550133	1366.493211	10.136000	-4.910000
	299.650139	1366.492019	10.180000	-4.910000
	299.750144	1366.490827	10.122000	-4.910000
	299.850150	1366.487249	10.172000	-4.930000
	299.953156	1366.502752	10.144000	-4.770000
	300.050162	1366.500367	10.170000	-4.920000
	300.153168	1366.496790	10.112000	-4.930000
	300.251173	1366.513486	10.166000	-4.760000
	300.352179	1366.513486	10.166000	-4.760000
	300.452185	1366.507523	10.138000	-4.950000
	300.552190	1366.517064	10.158000	-4.820000
	300.650196	1366.506332	10.118000	-4.990000
	300.754202	1366.515872	10.154000	-4.820000
	300.850207	1366.505140	10.126000	-4.990000
	300.950213	1366.489638	10.166000	-5.030000
	301.050219	1366.496793	10.114000	-4.840000
	301.150225	1366.496793	10.150000	-4.900000
	301.250230	1366.506334	10.146000	-4.820000
	301.352236	1366.512296	10.156000	-4.850000
	301.450242	1366.518259	10.138000	-4.850000
	301.552248	1366.517066	10.194000	-4.910000
	301.652253	1366.517066	10.194000	-4.910000
	301.753259	1366.514681	10.114000	-4.920000
	301.850265	1366.500372	10.170000	-5.020000
	301.900268	1366.507527	10.160000	-4.840000
	302.050276	1366.512297	10.162000	-4.860000
	302.153282	1366.487257	10.134000	-5.110000
	302.250288	1366.514687	10.166000	-4.670000
	302.350293	1366.500377	10.120000	-5.020000
	302.450299	1366.519459	10.172000	-4.740000
	302.552305	1366.521844	10.128000	-4.880000
	302.650311	1366.521844	10.128000	-4.880000
	302.750316	1366.517074	10.166000	-4.940000
	302.850322	1366.508726	10.122000	-4.970000
	302.950327	1366.515882	10.178000	-4.840000
	303.050333	1366.507534	10.136000	-4.970000
	303.150339	1366.512304	10.174000	-4.860000
	303.250345	1366.515882	10.140000	-4.870000
	303.350350	1366.503957	10.182000	-5.000000
	303.417354	1366.512305	10.142000	-4.830000
	303.550362	1366.509920	10.150000	-4.920000
	303.650368	1366.513498	10.128000	-4.870000
	303.751373	1366.502766	10.150000	-4.990000
	303.850379	1366.511113	10.140000	-4.830000
	303.950385	1366.503959	10.164000	-4.960000
	304.050391	1366.512306	10.148000	-4.830000
	304.150396	1366.512306	10.148000	-4.830000
	304.250402	1366.489650	10.128000	-5.090000
	304.350408	1366.513502	10.146000	-4.700000
	304.450413	1366.499193	10.138000	-5.020000
	304.550419	1366.517082	10.170000	-4.750000
	304.650425	1366.505157	10.120000	-5.000000
	304.750431	1366.511120	10.172000	-4.850000
	304.850436	1366.508735	10.124000	-4.920000
	304.952442	1366.514697	10.168000	-4.850000
	305.050447	1366.503965	10.124000	-4.990000
	305.151453	1366.506350	10.170000	-4.880000
	305.250459	1366.499195	10.132000	-4.960000
	305.350465	1366.477732	10.144000	-5.080000
	305.450470	1366.499198	10.128000	-4.720000
	305.550476	1366.488466	10.164000	-4.990000
	305.650482	1366.499199	10.148000	-4.810000
	305.750488	1366.499199	10.148000	-4.810000
	305.850493	1366.493237	10.144000	-4.950000
	305.950499	1366.501584	10.116000	-4.830000
	306.050505	1366.480121	10.158000	-5.080000
	306.150511	1366.490854	10.128000	-4.810000
	306.250516	1366.478930	10.168000	-5.000000
	306.350522	1366.487277	10.146000	-4.830000
	306.450528	1366.495625	10.160000	-4.830000
	306.550533	1366.480123	10.128000	-5.030000
	306.650539	1366.493241	10.186000	-4.790000
	306.750545	1366.486086	10.130000	-4.960000
	306.850551	1366.486086	10.130000	-4.960000
	306.952557	1366.490856	10.172000	-4.860000
	307.050562	1366.489664	10.128000	-4.910000
	307.154568	1366.489664	10.164000	-4.900000
	307.250574	1366.487279	10.136000	-4.920000
	307.352580	1366.495627	10.160000	-4.830000
	307.450585	1366.492049	10.134000	-4.930000
	307.553591	1366.493242	10.174000	-4.890000
	307.650597	1366.484894	10.134000	-4.970000
	307.752602	1366.493242	10.160000	-4.830000
	307.850608	1366.486087	10.130000	-4.960000
	307.952614	1366.501591	10.170000	-4.770000
	308.050619	1366.501591	10.170000	-4.770000
	308.150625	1366.493243	10.144000	-4.970000
	308.250631	1366.488473	10.158000	-4.940000
	308.350636	1366.467010	10.118000	-5.080000
	308.449642	1366.470588	10.164000	-4.870000
	308.549648	1366.463433	10.116000	-4.960000
	308.649653	1366.472973	10.182000	-4.820000
	308.749659	1366.494439	10.154000	-4.720000
	308.849665	1366.489670	10.162000	-4.940000
	308.955671	1366.500402	10.130000	-4.810000
	309.049676	1366.495632	10.182000	-4.940000
	309.149682	1366.489670	10.134000	-4.950000
	309.249688	1366.489670	10.134000	-4.950000
	309.349694	1366.493248	10.170000	-4.870000
	309.449699	1366.489670	10.120000	-4.930000
	309.549705	1366.484900	10.174000	-4.940000
	309.699714	1366.481323	10.166000	-4.930000
	309.800719	1366.484900	10.132000	-4.870000
	309.899725	1366.477746	10.158000	-4.960000
	310.000731	1366.477746	10.146000	-4.900000
	310.099737	1366.462244	10.164000	-5.030000
	310.203743	1366.489674	10.132000	-4.670000
	310.299748	1366.484904	10.168000	-4.940000
	310.407754	1366.487289	10.132000	-4.880000
	310.499759	1366.484904	10.166000	-4.920000
	310.549762	1366.484904	10.166000	-4.920000
	310.715772	1366.480134	10.112000	-4.940000
	310.799777	1366.499215	10.170000	-4.740000
	310.899782	1366.493253	10.146000	-4.950000
	310.999788	1366.503986	10.186000	-4.810000
	311.099794	1366.501601	10.122000	-4.920000
	311.199800	1366.487292	10.168000	-5.020000
	311.299805	1366.489677	10.162000	-4.880000
	311.399811	1366.477752	10.152000	-5.000000
	311.499816	1366.509953	10.154000	-4.630000
	311.599823	1366.500413	10.150000	-4.980000
	311.699828	1366.508761	10.162000	-4.830000
	311.799834	1366.488490	10.138000	-5.070000
	311.899839	1366.500415	10.170000	-4.800000
	311.999845	1366.489683	10.140000	-4.990000
	312.099851	1366.508765	10.154000	-4.740000
	312.199857	1366.508765	10.154000	-4.740000
	312.299862	1366.488493	10.134000	-5.070000
	312.399868	1366.509960	10.162000	-4.720000
	312.499874	1366.503998	10.122000	-4.950000
	312.599879	1366.511153	10.174000	-4.840000
	312.699885	1366.488497	10.134000	-5.090000
	312.799891	1366.480150	10.176000	-4.970000
	312.900897	1366.481342	10.122000	-4.890000
	312.999902	1366.490882	10.164000	-4.820000
	313.099908	1366.488497	10.128000	-4.920000
	313.199914	1366.471804	10.148000	-5.040000
	313.299920	1366.495655	10.152000	-4.700000
	313.399925	1366.488500	10.182000	-4.960000
	313.499931	1366.505196	10.162000	-4.760000
	313.599936	1366.498042	10.154000	-4.960000
	313.699943	1366.517123	10.156000	-4.740000
	313.799948	1366.504006	10.134000	-5.010000
	313.899954	1366.504006	10.134000	-5.010000
	313.999959	1366.504006	10.176000	-4.900000
	314.099965	1366.502813	10.128000	-4.910000
	314.199971	1366.513546	10.178000	-4.810000
	314.299977	1366.500429	10.150000	-5.010000
	314.399982	1366.499237	10.166000	-4.910000
	314.499988	1366.498044	10.110000	-4.910000
	314.599994	1366.507585	10.186000	-4.820000
	314.700000	1366.494468	10.130000	-5.010000
	314.800005	1366.490890	10.164000	-4.930000
	314.900011	1366.493275	10.118000	-4.880000
	315.000017	1366.488505	10.168000	-4.940000
	315.100022	1366.489698	10.148000	-4.890000
	315.200028	1366.474196	10.152000	-5.030000
	315.300034	1366.474196	10.158000	-4.900000
	315.400040	1366.474196	10.158000	-4.900000
	315.502046	1366.463464	10.156000	-4.990000
	315.600051	1366.487316	10.160000	-4.700000
	315.700057	1366.481354	10.158000	-4.950000
	315.800063	1366.493279	10.168000	-4.800000
	315.900068	1366.477777	10.156000	-5.030000
	316.000074	1366.492088	10.162000	-4.780000
	316.100080	1366.473009	10.128000	-5.060000
	316.200086	1366.484935	10.162000	-4.800000
	316.303091	1366.464664	10.140000	-5.070000
	316.400097	1366.474204	10.168000	-4.820000
	316.500103	1366.457510	10.136000	-5.040000
	316.600108	1366.475398	10.166000	-4.750000
	316.700114	1366.464667	10.132000	-4.990000
	316.800120	1366.471822	10.164000	-4.840000
	316.900126	1366.471822	10.164000	-4.840000
	317.000131	1366.461090	10.138000	-4.990000
	317.100137	1366.471822	10.162000	-4.810000
	317.200143	1366.465860	10.140000	-4.950000
	317.300148	1366.462283	10.162000	-4.930000
	317.400154	1366.468245	10.142000	-4.850000
	317.500160	1366.473015	10.156000	-4.860000
	317.600165	1366.480170	10.130000	-4.840000
	317.700171	1366.483748	10.172000	-4.870000
	317.800177	1366.488518	10.152000	-4.860000
	317.900183	1366.484940	10.172000	-4.930000
	318.002189	1366.499251	10.146000	-4.780000
	318.100194	1366.494481	10.172000	-4.940000
	318.200200	1366.507599	10.152000	-4.790000
	318.300206	1366.480174	10.152000	-5.130000
	318.400211	1366.496870	10.146000	-4.760000
	318.502217	1366.488523	10.148000	-4.970000
	318.600223	1366.488523	10.148000	-4.970000
	318.700229	1366.492100	10.160000	-4.870000
	318.800234	1366.483753	10.150000	-4.970000
	318.900240	1366.498063	10.162000	-4.780000
	319.000246	1366.483754	10.138000	-5.020000
	319.100251	1366.500450	10.172000	-4.760000
	319.200257	1366.489718	10.126000	-4.990000
	319.300263	1366.499258	10.184000	-4.820000
	319.400269	1366.498066	10.130000	-4.910000
	319.500274	1366.494488	10.174000	-4.930000
	319.600280	1366.504029	10.134000	-4.820000
	319.700286	1366.502836	10.166000	-4.910000
	319.800292	1366.509991	10.144000	-4.840000
	319.900297	1366.498067	10.162000	-5.000000
	320.000303	1366.512377	10.158000	-4.780000
	320.100308	1366.501645	10.132000	-4.990000
	320.200315	1366.501645	10.132000	-4.990000
	320.300320	1366.511186	10.154000	-4.820000
	320.400326	1366.499261	10.144000	-5.000000
	320.500331	1366.495684	10.162000	-4.930000
	320.600337	1366.489721	10.128000	-4.950000
	320.701343	1366.475412	10.160000	-5.020000
	320.800349	1366.473027	10.166000	-4.920000
	320.900354	1366.463488	10.184000	-4.980000
	321.000360	1366.476606	10.154000	-4.790000
	321.100366	1366.457527	10.148000	-5.060000
	321.200371	1366.469452	10.162000	-4.800000
	321.300377	1366.455143	10.140000	-5.020000
	321.400383	1366.476609	10.164000	-4.720000
	321.500389	1366.473032	10.140000	-4.930000
	321.600394	1366.473032	10.140000	-4.930000
	321.700400	1366.487342	10.162000	-4.780000
	321.800406	1366.478995	10.126000	-4.970000
	321.902411	1366.481380	10.172000	-4.880000
	322.000417	1366.502847	10.110000	-4.720000
	322.100423	1366.484960	10.150000	-5.050000
	322.200428	1366.488538	10.142000	-4.870000
	322.300435	1366.482576	10.158000	-4.950000
	322.400440	1366.481383	10.176000	-4.910000
	322.500446	1366.469459	10.156000	-5.000000
	322.600451	1366.468266	10.168000	-4.910000
	322.700457	1366.468266	10.122000	-4.900000
	322.802463	1366.453957	10.172000	-5.020000
	322.900469	1366.459920	10.132000	-4.850000
	323.000474	1366.469460	10.158000	-4.820000
	323.100480	1366.492119	10.160000	-4.710000
	323.200486	1366.492119	10.160000	-4.710000
	323.300492	1366.465886	10.138000	-5.120000
	323.400497	1366.487352	10.158000	-4.720000
	323.500503	1366.475428	10.142000	-5.000000
	323.600509	1366.493316	10.148000	-4.750000
	323.700514	1366.490932	10.142000	-4.920000
	323.800520	1366.493317	10.160000	-4.880000
	323.900526	1366.507627	10.146000	-4.780000
	324.000532	1366.481394	10.174000	-5.120000
	324.100537	1366.495705	10.154000	-4.780000
	324.200543	1366.489743	10.150000	-4.950000
	324.300549	1366.495705	10.172000	-4.850000
	324.400555	1366.493320	10.130000	-4.920000
	324.500560	1366.496898	10.174000	-4.870000
	324.600566	1366.514786	10.118000	-4.750000
	324.700572	1366.508824	10.156000	-4.950000
	324.800577	1366.518364	10.148000	-4.820000
	324.900583	1366.518364	10.148000	-4.820000
	325.000589	1366.506440	10.142000	-5.000000
	325.100595	1366.526714	10.142000	-4.730000
	325.200600	1366.506442	10.132000	-5.070000
	325.300606	1366.507635	10.162000	-4.890000
	325.400612	1366.492133	10.114000	-5.030000
	325.500618	1366.492133	10.186000	-4.900000
	325.600623	1366.499288	10.142000	-4.840000
	325.700629	1366.480210	10.172000	-5.060000
	325.800634	1366.501676	10.150000	-4.720000
	325.899640	1366.495714	10.142000	-4.950000
	325.999646	1366.507639	10.182000	-4.800000
	326.099652	1366.506447	10.144000	-4.910000
	326.199657	1366.498099	10.186000	-4.970000
	326.299663	1366.504062	10.128000	-4.850000
	326.399669	1366.484983	10.172000	-5.060000
	326.499675	1366.484983	10.172000	-5.060000
	326.599680	1366.506450	10.144000	-4.720000
	326.699686	1366.489756	10.134000	-5.040000
	326.799692	1366.501681	10.184000	-4.800000
	326.899697	1366.508836	10.118000	-4.840000
	326.999703	1366.501682	10.166000	-4.960000
	327.099709	1366.507644	10.136000	-4.850000
	327.199715	1366.489758	10.142000	-5.050000
	327.299720	1366.510032	10.172000	-4.730000
	327.399726	1366.486183	10.120000	-5.100000
	327.499732	1366.493339	10.176000	-4.840000
	327.599738	1366.486184	10.132000	-4.960000
	327.699743	1366.501687	10.176000	-4.770000
	327.799749	1366.505265	10.134000	-4.870000
	327.899755	1366.483801	10.168000	-5.080000
	327.999760	1366.504075	10.156000	-4.730000
	328.099766	1366.494535	10.138000	-4.980000
	328.199772	1366.494535	10.138000	-4.980000
	328.299778	1366.508846	10.180000	-4.780000
	328.399783	1366.488575	10.122000	-5.070000
	328.501789	1366.495730	10.176000	-4.840000
	328.599795	1366.502885	10.130000	-4.840000
	328.699800	1366.494538	10.172000	-4.970000
	328.799806	1366.505271	10.156000	-4.810000
	328.899812	1366.489769	10.126000	-5.030000
	329.000818	1366.482614	10.164000	-4.960000
	329.099823	1366.481422	10.142000	-4.910000
	329.199829	1366.484999	10.182000	-4.870000
	329.299835	1366.513622	10.138000	-4.660000
	329.399840	1366.511237	10.170000	-4.920000
	329.499846	1366.527933	10.150000	-4.760000
	329.599852	1366.518393	10.156000	-4.980000
	329.699858	1366.524356	10.144000	-4.850000
	329.799863	1366.524356	10.144000	-4.850000
	329.899869	1366.505277	10.166000	-5.060000
	329.999875	1366.531515	10.154000	-4.680000
	330.099881	1366.511243	10.152000	-5.070000
	330.199886	1366.523169	10.166000	-4.800000
	330.299892	1366.513629	10.108000	-4.980000
	330.399898	1366.508859	10.148000	-4.940000
	330.499903	1366.524363	10.132000	-4.770000
	330.599909	1366.512438	10.144000	-5.000000
	330.699915	1366.541061	10.158000	-4.660000
	330.799921	1366.519597	10.156000	-5.080000
	330.899926	1366.536293	10.182000	-4.760000
	330.999932	1366.521984	10.138000	-5.020000
	331.099938	1366.508867	10.184000	-5.010000
	331.199944	1366.521985	10.126000	-4.790000
	331.299949	1366.521985	10.126000	-4.790000
	331.399955	1366.516023	10.180000	-4.950000
	331.499960	1366.527948	10.152000	-4.800000
	331.599966	1366.511254	10.156000	-5.040000
	331.699972	1366.529143	10.164000	-4.750000
	331.799978	1366.516026	10.144000	-5.010000
	331.899983	1366.518411	10.174000	-4.880000
	331.999989	1366.507678	10.122000	-4.990000
	332.099995	1366.499331	10.164000	-4.970000
	332.200001	1366.512449	10.124000	-4.790000
	332.300006	1366.499332	10.178000	-5.010000
	332.400012	1366.516028	10.168000	-4.760000
	332.500018	1366.505296	10.128000	-4.990000
	332.600023	1366.516029	10.156000	-4.810000
	332.700029	1366.504104	10.126000	-5.000000
	332.800035	1366.510067	10.174000	-4.850000
	332.900041	1366.510067	10.174000	-4.850000
	333.000046	1366.518415	10.140000	-4.830000
	333.100052	1366.519607	10.168000	-4.890000
	333.200058	1366.532726	10.132000	-4.790000
	333.300064	1366.512454	10.150000	-5.070000
	333.400069	1366.518417	10.148000	-4.850000
	333.503075	1366.505300	10.136000	-5.010000
	333.600080	1366.516033	10.174000	-4.810000
	333.700087	1366.508878	10.128000	-4.960000
	333.800092	1366.504108	10.172000	-4.940000
	333.900098	1366.526767	10.138000	-4.710000
	334.000103	1366.506496	10.126000	-5.070000
	334.100109	1366.518422	10.168000	-4.800000
	334.200115	1366.510074	10.136000	-4.970000
	334.300121	1366.504112	10.178000	-4.950000
	334.400126	1366.507689	10.156000	-4.870000
	334.500132	1366.507689	10.156000	-4.870000
	334.600138	1366.490995	10.146000	-5.040000
	334.700144	1366.506499	10.178000	-4.770000
	334.800149	1366.498151	10.122000	-4.970000
	334.900155	1366.500536	10.160000	-4.880000
	335.000161	1366.511269	10.118000	-4.810000
	335.100166	1366.502922	10.174000	-4.970000
	335.200172	1366.507692	10.168000	-4.860000
	335.300178	1366.512462	10.130000	-4.860000
	335.400184	1366.517232	10.172000	-4.860000
	335.500189	1366.530350	10.132000	-4.790000
	335.600195	1366.513656	10.162000	-5.040000
	335.700201	1366.520811	10.154000	-4.840000
	335.800207	1366.500540	10.144000	-5.070000
	335.900212	1366.508888	10.146000	-4.830000
	336.000218	1366.508888	10.146000	-4.830000
	336.100224	1366.507695	10.138000	-4.910000
	336.200229	1366.520814	10.164000	-4.790000
	336.300235	1366.531547	10.132000	-4.810000
	336.400241	1366.502929	10.166000	-5.140000
	336.500247	1366.522010	10.154000	-4.740000
	336.600252	1366.507701	10.142000	-5.020000
	336.700258	1366.505316	10.194000	-4.920000
	336.800264	1366.512471	10.140000	-4.840000
	336.900270	1366.495777	10.180000	-5.040000
	337.000275	1366.524400	10.172000	-4.660000
	337.100281	1366.520822	10.126000	-4.930000
	337.200286	1366.535133	10.180000	-4.780000
	337.300292	1366.549444	10.138000	-4.780000
	337.400298	1366.537519	10.168000	-5.000000
	337.500304	1366.551831	10.160000	-4.780000
	337.600309	1366.547061	10.142000	-4.940000
	337.700315	1366.547061	10.142000	-4.940000
	337.800321	1366.561372	10.170000	-4.780000
	337.900327	1366.564949	10.132000	-4.870000
	338.000332	1366.567335	10.172000	-4.880000
	338.100338	1366.567335	10.136000	-4.900000
	338.200344	1366.542293	10.154000	-5.110000
	338.300350	1366.547063	10.136000	-4.860000
	338.400355	1366.536331	10.134000	-4.990000
	338.500361	1366.530368	10.182000	-4.950000
	338.600367	1366.526791	10.142000	-4.930000
	338.700372	1366.498173	10.150000	-5.140000
	338.800378	1366.510099	10.140000	-4.800000
	338.900384	1366.500559	10.140000	-4.980000
	339.000390	1366.525604	10.172000	-4.690000
	339.100395	1366.525604	10.172000	-4.690000
	339.200401	1366.517256	10.130000	-4.970000
	339.300406	1366.523219	10.176000	-4.850000
	339.400413	1366.538723	10.122000	-4.770000
	339.500418	1366.513682	10.160000	-5.110000
	339.600424	1366.519644	10.158000	-4.850000
	339.700429	1366.510105	10.132000	-4.980000
	339.800435	1366.514875	10.180000	-4.860000
	339.900441	1366.530378	10.138000	-4.770000
	340.000447	1366.513684	10.152000	-5.040000
	340.100452	1366.537536	10.138000	-4.700000
	340.200458	1366.525612	10.136000	-5.000000
	340.300464	1366.538730	10.178000	-4.790000
	340.400470	1366.518458	10.132000	-5.070000
	340.500475	1366.522036	10.170000	-4.870000
	340.600481	1366.530384	10.124000	-4.830000
	340.750490	1366.508920	10.156000	-5.080000
	340.850495	1366.508920	10.156000	-5.080000
	340.950501	1366.531580	10.154000	-4.710000
	341.050507	1366.516078	10.142000	-5.030000
	341.150513	1366.516078	10.180000	-4.900000
	341.250518	1366.523233	10.136000	-4.840000
	341.350524	1366.505346	10.138000	-5.050000
	341.450530	1366.525620	10.158000	-4.730000
	341.550535	1366.517273	10.122000	-4.970000
	341.650541	1366.513695	10.150000	-4.930000
	341.750547	1366.537548	10.148000	-4.700000
	341.850553	1366.522046	10.142000	-5.030000
	341.950558	1366.529201	10.164000	-4.840000
	342.050564	1366.511314	10.122000	-5.050000
	342.150570	1366.516084	10.158000	-4.860000
	342.250576	1366.510122	10.138000	-4.950000
	342.350581	1366.530396	10.172000	-4.730000
	342.450587	1366.530396	10.172000	-4.730000
	342.552593	1366.519664	10.134000	-4.990000
	342.650598	1366.514894	10.182000	-4.940000
	342.750604	1366.533975	10.148000	-4.740000
	342.850610	1366.516089	10.148000	-5.050000
	342.950615	1366.529207	10.162000	-4.790000
	343.050621	1366.516090	10.146000	-5.010000
	343.150627	1366.514897	10.194000	-4.910000
	343.250633	1366.519667	10.126000	-4.860000
	343.350638	1366.488665	10.146000	-5.160000
	343.449644	1366.507747	10.156000	-4.740000
	343.549650	1366.491052	10.120000	-5.040000
	343.649655	1366.492245	10.190000	-4.890000
	343.749661	1366.491052	10.122000	-4.910000
	343.849667	1366.479128	10.162000	-5.000000
	343.949673	1366.485091	10.144000	-4.850000
	344.049678	1366.461243	10.160000	-5.100000
	344.149684	1366.461243	10.160000	-5.100000
	344.249690	1366.653415	10.066000	-3.290000
	344.349696	1366.547304	10.320000	-5.790000
	344.450701	1366.470999	10.334000	-5.540000
	344.556707	1366.410195	10.280000	-5.410000
	344.649713	1366.345818	10.320000	-5.440000
	344.749718	1366.320780	10.294000	-5.110000
	344.849724	1366.281439	10.316000	-5.230000
	344.949730	1366.261171	10.326000	-5.070000
	345.049736	1366.230175	10.290000	-5.160000
	345.149741	1366.226598	10.342000	-4.930000
	345.249747	1366.213484	10.288000	-5.010000
	345.349753	1366.203946	10.328000	-4.980000
	345.449759	1366.194408	10.300000	-4.980000
	345.549764	1366.181294	10.336000	-5.010000
	345.649770	1366.190833	10.296000	-4.820000
	345.749775	1366.190833	10.296000	-4.820000
	345.849782	1366.158646	10.302000	-5.170000
	345.949787	1366.163415	10.322000	-4.860000
	346.049793	1366.153878	10.308000	-4.980000
	346.149798	1366.169377	10.324000	-4.770000
	346.249804	1366.141959	10.310000	-5.130000
	346.351810	1366.147920	10.352000	-4.850000
	346.449816	1366.151497	10.322000	-4.870000
	346.549821	1366.161034	10.320000	-4.820000
	346.649827	1366.151497	10.302000	-4.980000
	346.749833	1366.153882	10.342000	-4.880000
	346.849838	1366.155074	10.304000	-4.890000
	346.949844	1366.139576	10.340000	-5.030000
	347.049850	1366.140768	10.298000	-4.890000
	347.149856	1366.126463	10.342000	-5.020000
	347.249861	1366.134808	10.306000	-4.830000
	347.349867	1366.134808	10.306000	-4.830000
	347.449873	1366.120503	10.320000	-5.020000
	347.549879	1366.141964	10.332000	-4.720000
	347.649884	1366.122890	10.306000	-5.060000
	347.749890	1366.139581	10.344000	-4.760000
	347.849895	1366.150311	10.308000	-4.810000
	347.949902	1366.159849	10.328000	-4.820000
	348.049907	1366.152696	10.296000	-4.960000
	348.149913	1366.152696	10.344000	-4.900000
	348.251919	1366.157465	10.274000	-4.860000
	348.349924	1366.155081	10.328000	-4.920000
	348.449930	1366.144351	10.308000	-4.990000
	348.549936	1366.140775	10.328000	-4.930000
	348.649941	1366.132430	10.286000	-4.970000
	348.749947	1366.127661	10.328000	-4.940000
	348.849953	1366.131238	10.292000	-4.870000
	348.949959	1366.131238	10.292000	-4.870000
	349.049964	1366.144352	10.328000	-4.790000
	349.149970	1366.137199	10.296000	-4.960000
	349.249976	1366.133623	10.330000	-4.930000
	349.349981	1366.127662	10.302000	-4.950000
	349.449987	1366.126470	10.346000	-4.910000
	349.549993	1366.131239	10.286000	-4.860000
	349.649999	1366.116933	10.332000	-5.020000
	349.750004	1366.122894	10.298000	-4.850000
	349.850010	1366.120510	10.324000	-4.920000
	349.950016	1366.130048	10.298000	-4.820000
	350.050022	1366.127663	10.350000	-4.920000
	350.151027	1366.132432	10.308000	-4.860000
	350.250033	1366.139585	10.336000	-4.840000
	350.350039	1366.143162	10.318000	-4.870000
	350.450044	1366.143162	10.318000	-4.870000
	350.550050	1366.159854	10.336000	-4.760000
	350.650056	1366.151508	10.298000	-4.970000
	350.750062	1366.171777	10.324000	-4.730000
	350.850067	1366.156279	10.286000	-5.030000
	350.950073	1366.187280	10.336000	-4.640000
	351.050079	1366.171782	10.314000	-5.030000
	351.150084	1366.176551	10.302000	-4.860000
	351.250090	1366.189666	10.320000	-4.790000
	351.350096	1366.194435	10.310000	-4.860000
	351.450101	1366.194435	10.310000	-4.860000
	351.550107	1366.208743	10.324000	-4.780000
	351.650113	1366.200397	10.288000	-4.970000
	351.750119	1366.192052	10.322000	-4.970000
	351.850124	1366.182514	10.274000	-4.980000
	351.950130	1366.172977	10.340000	-4.980000
	352.051136	1366.172977	10.290000	-4.900000
	352.150142	1366.159863	10.334000	-5.010000
	352.250147	1366.162248	10.304000	-4.880000
	352.350153	1366.151518	10.342000	-4.990000
	352.450159	1366.138405	10.308000	-5.010000
	352.550165	1366.143173	10.342000	-4.860000
	352.650170	1366.146750	10.290000	-4.870000
	352.750176	1366.145558	10.346000	-4.910000
	352.850182	1366.130060	10.280000	-5.030000
	352.950187	1366.144367	10.306000	-4.780000
	353.050193	1366.144367	10.306000	-4.780000
	353.150199	1366.132446	10.292000	-5.000000
	353.250205	1366.137215	10.312000	-4.860000
	353.350210	1366.136022	10.290000	-4.910000
	353.450216	1366.149137	10.314000	-4.790000
	353.550222	1366.137216	10.286000	-5.000000
	353.650228	1366.132447	10.308000	-4.940000
	353.750233	1366.124102	10.310000	-4.970000
	353.851239	1366.134832	10.322000	-4.810000
	353.950244	1366.139601	10.310000	-4.860000
	354.050251	1366.137216	10.340000	-4.920000
	354.150256	1366.137216	10.292000	-4.900000
	354.250262	1366.144370	10.340000	-4.840000
	354.350267	1366.149138	10.300000	-4.860000
	354.450273	1366.139601	10.322000	-4.980000
	354.550279	1366.132448	10.296000	-4.960000
	354.650285	1366.131256	10.334000	-4.910000
	354.750290	1366.131256	10.334000	-4.910000
	354.850296	1366.140794	10.322000	-4.820000
	354.953302	1366.144371	10.328000	-4.870000
	355.050308	1366.145563	10.300000	-4.890000
	355.150313	1366.151524	10.326000	-4.850000
	355.250319	1366.147947	10.292000	-4.930000
	355.350325	1366.150332	10.340000	-4.880000
	355.450330	1366.140794	10.316000	-4.980000
	355.550336	1366.153909	10.336000	-4.790000
	355.650342	1366.162255	10.314000	-4.830000
	355.750348	1366.183716	10.334000	-4.720000
	355.850353	1366.183716	10.296000	-4.900000
	355.950359	1366.189677	10.326000	-4.850000
	356.052365	1366.198023	10.290000	-4.830000
	356.150371	1366.220678	10.328000	-4.710000
	356.250376	1366.218293	10.288000	-4.920000
	356.350382	1366.218293	10.288000	-4.920000
	356.450387	1366.218293	10.328000	-4.900000
	356.550394	1366.200410	10.296000	-5.050000
	356.650399	1366.183720	10.352000	-5.040000
	356.750405	1366.186105	10.290000	-4.880000
	356.853411	1366.180144	10.338000	-4.950000
	356.950416	1366.186105	10.304000	-4.850000
	357.050422	1366.170607	10.326000	-5.030000
	357.150428	1366.168222	10.298000	-4.920000
	357.250433	1366.167030	10.320000	-4.910000
	357.350439	1366.170607	10.282000	-4.870000
	357.450445	1366.163454	10.322000	-4.960000
	357.550451	1366.174184	10.282000	-4.810000
	357.650456	1366.174184	10.316000	-4.900000
	357.750462	1366.182530	10.286000	-4.830000
	357.850468	1366.178953	10.338000	-4.930000
	357.950473	1366.178953	10.338000	-4.930000
	358.050479	1366.184914	10.290000	-4.850000
	358.150485	1366.176569	10.326000	-4.970000
	358.250491	1366.187299	10.318000	-4.810000
	358.350496	1366.165841	10.322000	-5.080000
	358.450502	1366.170610	10.294000	-4.860000
	358.550508	1366.155112	10.322000	-5.030000
	358.650514	1366.165842	10.294000	-4.810000
	358.752519	1366.162266	10.342000	-4.930000
	358.850525	1366.169419	10.296000	-4.840000
	358.950531	1366.156305	10.312000	-5.010000
	359.050536	1366.162267	10.298000	-4.850000
	359.150542	1366.140809	10.306000	-5.080000
	359.250548	1366.149154	10.308000	-4.830000
	359.350554	1366.140809	10.334000	-4.970000
	359.450559	1366.147962	10.292000	-4.840000
	359.550565	1366.146770	10.330000	-4.910000
	359.650571	1366.146770	10.330000	-4.910000
	359.753577	1366.158693	10.314000	-4.800000
	359.850582	1366.145579	10.326000	-5.010000
	359.950588	1366.146771	10.304000	-4.890000
	360.050593	1366.138426	10.324000	-4.970000
	360.150599	1366.137234	10.292000	-4.910000
	360.250605	1366.140811	10.332000	-4.870000
	360.350611	1366.136042	10.302000	-4.940000
	360.450616	1366.127697	10.328000	-4.970000
	360.550622	1366.125313	10.304000	-4.920000
	360.651628	1366.128889	10.332000	-4.870000
	360.750634	1366.133658	10.280000	-4.860000
	360.850639	1366.128889	10.322000	-4.940000
	360.949645	1366.125313	10.292000	-4.930000
	361.049651	1366.134850	10.326000	-4.820000
	361.149656	1366.126505	10.298000	-4.970000
	361.249662	1366.147966	10.318000	-4.720000
	361.349668	1366.147966	10.318000	-4.720000
	361.449674	1366.139621	10.308000	-4.970000
	361.549679	1366.144390	10.328000	-4.860000
	361.652685	1366.128892	10.302000	-5.030000
	361.749691	1366.143199	10.312000	-4.780000
	361.849697	1366.133662	10.310000	-4.980000
	361.949702	1366.147969	10.310000	-4.780000
	362.049708	1366.136048	10.300000	-5.000000
	362.149714	1366.146778	10.290000	-4.810000
	362.249719	1366.137241	10.334000	-4.980000
	362.349725	1366.134856	10.312000	-4.920000
	362.449731	1366.138433	10.308000	-4.870000
	362.549736	1366.137241	10.294000	-4.910000
	362.649742	1366.132472	10.320000	-4.940000
	362.749748	1366.128895	10.292000	-4.930000
	362.849754	1366.134856	10.330000	-4.850000
	362.949759	1366.134856	10.330000	-4.850000
	363.049765	1366.130088	10.304000	-4.940000
	363.149771	1366.146779	10.340000	-4.760000
	363.249776	1366.133666	10.308000	-5.010000
	363.349782	1366.155127	10.304000	-4.720000
	363.449788	1366.152742	10.320000	-4.920000
	363.549794	1366.146782	10.310000	-4.950000
	363.649799	1366.126516	10.322000	-5.070000
	363.749805	1366.137246	10.312000	-4.810000
	363.849811	1366.131285	10.320000	-4.950000
	363.949817	1366.128901	10.302000	-4.920000
	364.099825	1366.121748	10.342000	-4.960000
	364.199831	1366.109827	10.310000	-5.000000
	364.299837	1366.118172	10.346000	-4.830000
	364.399842	1366.099099	10.298000	-5.060000
	364.499848	1366.099099	10.298000	-5.060000
	364.599854	1366.115790	10.336000	-4.760000
	364.699860	1366.109829	10.306000	-4.950000
	364.799865	1366.124136	10.308000	-4.780000
	364.899871	1366.127712	10.308000	-4.870000
	364.999876	1366.127712	10.306000	-4.900000
	365.099883	1366.122944	10.320000	-4.940000
	365.199888	1366.139635	10.306000	-4.760000
	365.299894	1366.130098	10.320000	-4.980000
	365.399899	1366.140828	10.320000	-4.810000
	365.499905	1366.151558	10.320000	-4.810000
	365.599911	1366.144405	10.284000	-4.960000
	365.699917	1366.146789	10.316000	-4.880000
	365.799922	1366.139637	10.326000	-4.960000
	365.849926	1366.158713	10.324000	-4.740000
	365.999934	1366.139639	10.302000	-5.060000
	366.099940	1366.157523	10.324000	-4.750000
	366.199945	1366.157523	10.324000	-4.750000
	366.299951	1366.140833	10.302000	-5.040000
	366.399957	1366.149179	10.306000	-4.830000
	366.499962	1366.145602	10.326000	-4.930000
	366.599968	1366.158717	10.314000	-4.790000
	366.699974	1366.142027	10.312000	-5.040000
	366.799980	1366.150373	10.296000	-4.830000
	366.899985	1366.157526	10.330000	-4.840000
	366.999991	1366.165872	10.298000	-4.830000
	367.099997	1366.173025	10.316000	-4.840000
	367.200003	1366.162295	10.308000	-4.990000
	367.300008	1366.164680	10.342000	-4.880000
	367.400014	1366.157527	10.298000	-4.960000
	367.500020	1366.162296	10.318000	-4.860000
	367.600025	1366.151566	10.298000	-4.990000
	367.700031	1366.143221	10.324000	-4.970000
	367.802037	1366.143221	10.324000	-4.970000
	367.900043	1366.128916	10.310000	-5.020000
	368.000048	1366.143223	10.338000	-4.780000
	368.100054	1366.122957	10.320000	-5.070000
	368.200060	1366.134879	10.322000	-4.800000
	368.300066	1366.131303	10.318000	-4.930000
	368.400071	1366.152764	10.316000	-4.720000
	368.500077	1366.139650	10.332000	-5.010000
	368.600082	1366.155149	10.302000	-4.770000
	368.700089	1366.143228	10.338000	-5.000000
	368.800094	1366.152766	10.310000	-4.820000
	368.900100	1366.133692	10.334000	-5.060000
	369.000105	1366.140845	10.318000	-4.840000
	369.100111	1366.137269	10.348000	-4.930000
	369.200117	1366.142037	10.312000	-4.860000
	369.300123	1366.136077	10.326000	-4.950000
	369.400128	1366.136077	10.326000	-4.950000
	369.500134	1366.140845	10.296000	-4.860000
	369.600140	1366.132500	10.334000	-4.970000
	369.701146	1366.124155	10.312000	-4.970000
	369.800151	1366.118195	10.324000	-4.950000
	369.900157	1366.120579	10.296000	-4.880000
	370.000163	1366.131309	10.332000	-4.810000
	370.100168	1366.131309	10.294000	-4.900000
	370.200174	1366.149193	10.320000	-4.750000
	370.300180	1366.132503	10.308000	-5.040000
	370.400186	1366.143233	10.326000	-4.810000
	370.500191	1366.138464	10.302000	-4.940000
	370.600197	1366.143233	10.320000	-4.860000
	370.702203	1366.139657	10.316000	-4.930000
	370.800209	1366.149195	10.320000	-4.820000
	370.900214	1366.130121	10.330000	-5.060000
	371.000220	1366.148005	10.302000	-4.750000
	371.100225	1366.148005	10.302000	-4.750000
	371.200231	1366.131315	10.324000	-5.040000
	371.300237	1366.131315	10.312000	-4.900000
	371.400243	1366.128931	10.320000	-4.920000
	371.500248	1366.148007	10.318000	-4.740000
	371.600254	1366.139662	10.332000	-4.970000
	371.700260	1366.133701	10.308000	-4.950000
	371.800266	1366.136085	10.330000	-4.880000
	371.900271	1366.153969	10.302000	-4.750000
	372.000277	1366.145624	10.340000	-4.970000
	372.100283	1366.127742	10.302000	-5.050000
	372.200288	1366.144434	10.324000	-4.760000
	372.300294	1366.128936	10.324000	-5.030000
	372.400300	1366.133705	10.330000	-4.860000
	372.501306	1366.128936	10.322000	-4.940000
	372.601311	1366.138474	10.306000	-4.820000
	372.700317	1366.138474	10.306000	-4.820000
	372.800323	1366.140859	10.336000	-4.880000
	372.900329	1366.148012	10.304000	-4.840000
	373.000334	1366.156357	10.346000	-4.830000
	373.100340	1366.142052	10.310000	-5.020000
	373.200346	1366.161128	10.336000	-4.740000
	373.300352	1366.151591	10.320000	-4.980000
	373.400357	1366.157552	10.306000	-4.850000
	373.502363	1366.139670	10.312000	-5.050000
	373.600368	1366.144439	10.314000	-4.860000
	373.700374	1366.148015	10.336000	-4.870000
	373.800380	1366.150400	10.316000	-4.880000
	373.900386	1366.146823	10.338000	-4.930000
	374.000391	1366.143247	10.314000	-4.930000
	374.101397	1366.169478	10.344000	-4.680000
	374.200403	1366.165901	10.324000	-4.930000
	374.300408	1366.175439	10.326000	-4.820000
	374.400414	1366.175439	10.326000	-4.820000
	374.501420	1366.158749	10.338000	-5.040000
	374.600426	1366.152788	10.316000	-4.950000
	374.700431	1366.155172	10.336000	-4.880000
	374.800437	1366.140867	10.314000	-5.020000
	374.900443	1366.152789	10.320000	-4.800000
	375.000449	1366.131331	10.328000	-5.080000
	375.100454	1366.143254	10.302000	-4.800000
	375.200460	1366.143254	10.318000	-4.900000
	375.302466	1366.146830	10.300000	-4.870000
	375.400472	1366.143254	10.328000	-4.930000
	375.500477	1366.138485	10.300000	-4.940000
	375.600483	1366.150407	10.322000	-4.800000
	375.700489	1366.136102	10.298000	-5.020000
	375.800494	1366.139678	10.298000	-4.870000
	375.900500	1366.132526	10.338000	-4.960000
	376.000506	1366.138487	10.310000	-4.850000
	376.100512	1366.137294	10.324000	-4.910000
	376.200517	1366.137294	10.324000	-4.910000
	376.300523	1366.126565	10.304000	-4.990000
	376.401529	1366.140872	10.320000	-4.780000
	376.500535	1366.126567	10.318000	-5.020000
	376.600540	1366.139681	10.302000	-4.790000
	376.700546	1366.146834	10.338000	-4.840000
	376.800551	1366.144450	10.308000	-4.920000
	376.900558	1366.150411	10.330000	-4.850000
	377.000563	1366.145642	10.332000	-4.940000
	377.100569	1366.161142	10.326000	-4.770000
	377.200574	1366.158757	10.350000	-4.920000
	377.300580	1366.157565	10.320000	-4.910000
	377.400586	1366.179026	10.330000	-4.720000
	377.500592	1366.170681	10.306000	-4.970000
	377.600597	1366.181411	10.310000	-4.810000
	377.700603	1366.168298	10.316000	-5.010000
	377.800609	1366.168298	10.316000	-5.010000
	377.900614	1366.168298	10.300000	-4.900000
	378.000620	1366.157568	10.336000	-4.990000
	378.100626	1366.157568	10.302000	-4.900000
	378.200632	1366.167106	10.326000	-4.820000
	378.302638	1366.158761	10.302000	-4.970000
	378.399643	1366.192147	10.326000	-4.620000
	378.499649	1366.176649	10.322000	-5.030000
	378.599655	1366.176649	10.320000	-4.900000
	378.699660	1366.181418	10.338000	-4.860000
	378.799666	1366.174265	10.302000	-4.960000
	378.899672	1366.176649	10.308000	-4.880000
	378.999677	1366.152807	10.316000	-5.100000
	379.099683	1366.153999	10.320000	-4.890000
	379.199689	1366.144462	10.320000	-4.980000
	379.299695	1366.143269	10.302000	-4.910000
	379.399700	1366.143269	10.302000	-4.910000
	379.499706	1366.145654	10.326000	-4.880000
	379.599712	1366.140885	10.302000	-4.940000
	379.699718	1366.157577	10.340000	-4.760000
	379.799723	1366.158769	10.318000	-4.890000
	379.899729	1366.168307	10.294000	-4.820000
	379.999734	1366.159962	10.330000	-4.970000
	380.099741	1366.165923	10.308000	-4.850000
	380.199746	1366.154001	10.334000	-5.000000
	380.299752	1366.159962	10.294000	-4.850000
	380.399757	1366.164731	10.314000	-4.860000
	380.499763	1366.159963	10.292000	-4.940000
	380.599769	1366.177847	10.322000	-4.750000
	380.699775	1366.164733	10.310000	-5.010000
	380.799780	1366.161156	10.300000	-4.930000
	380.899786	1366.158772	10.354000	-4.920000
	380.999792	1366.158772	10.354000	-4.920000
	381.099797	1366.151619	10.300000	-4.960000
	381.199803	1366.163542	10.332000	-4.800000
	381.299809	1366.151620	10.308000	-5.000000
	381.399815	1366.159966	10.302000	-4.830000
	381.499820	1366.157581	10.320000	-4.920000
	381.599826	1366.173081	10.294000	-4.770000
	381.699832	1366.168312	10.336000	-4.940000
	381.799838	1366.175465	10.292000	-4.840000
	381.899843	1366.176658	10.356000	-4.890000
	381.999849	1366.174273	10.296000	-4.920000
	382.102855	1366.168312	10.336000	-4.950000
	382.199861	1366.157583	10.310000	-4.990000
	382.299866	1366.179044	10.328000	-4.720000
	382.399872	1366.173083	10.332000	-4.950000
	382.500877	1366.173083	10.332000	-4.950000
	382.599883	1366.168314	10.308000	-4.940000
	382.703889	1366.173083	10.334000	-4.860000
	382.799895	1366.144473	10.298000	-5.140000
	382.899900	1366.145665	10.310000	-4.890000
	383.000906	1366.149242	10.342000	-4.870000
	383.099912	1366.139705	10.314000	-4.980000
	383.199918	1366.163551	10.326000	-4.700000
	383.299923	1366.167127	10.308000	-4.870000
	383.399929	1366.171896	10.310000	-4.860000
	383.499935	1366.176665	10.354000	-4.860000
	383.599940	1366.182626	10.310000	-4.850000
	383.699946	1366.188587	10.340000	-4.850000
	383.799952	1366.176666	10.314000	-5.000000
	383.899958	1366.176666	10.314000	-5.000000
	384.001964	1366.186204	10.326000	-4.820000
	384.099969	1366.174282	10.314000	-5.000000
	384.199975	1366.179051	10.310000	-4.860000
	384.299981	1366.163553	10.334000	-5.030000
	384.399986	1366.152824	10.328000	-4.990000
	384.499992	1366.156400	10.310000	-4.870000
	384.599998	1366.157592	10.350000	-4.890000
	384.700004	1366.145671	10.292000	-5.000000
	384.800009	1366.154017	10.330000	-4.830000
	384.900015	1366.144479	10.326000	-4.980000
	385.003021	1366.150440	10.310000	-4.850000
	385.100026	1366.161171	10.342000	-4.810000
	385.200032	1366.161171	10.342000	-4.810000
	385.300038	1366.157594	10.308000	-4.930000
	385.400043	1366.176671	10.312000	-4.740000
	385.500049	1366.167133	10.344000	-4.980000
	385.600055	1366.159980	10.316000	-4.960000
	385.700060	1366.142098	10.304000	-5.050000
	385.801066	1366.159982	10.324000	-4.750000
	385.901072	1366.146869	10.340000	-5.010000
	386.000078	1366.152830	10.302000	-4.850000
	386.100083	1366.136140	10.340000	-5.040000
	386.200089	1366.136140	10.340000	-5.040000
	386.302095	1366.133756	10.308000	-4.920000
	386.400101	1366.143293	10.304000	-4.820000
	386.500106	1366.148062	10.322000	-4.860000
	386.600112	1366.142101	10.320000	-4.950000
	386.700118	1366.139717	10.320000	-4.920000
	386.800124	1366.143294	10.330000	-4.870000
	386.906129	1366.142101	10.330000	-4.910000
	387.000135	1366.136141	10.292000	-4.950000
	387.100141	1366.136141	10.292000	-4.950000
	387.200146	1366.154025	10.320000	-4.750000
	387.300152	1366.139719	10.328000	-5.020000
	387.450161	1366.139719	10.288000	-4.900000
	387.550167	1366.156411	10.310000	-4.760000
	387.650172	1366.151642	10.334000	-4.940000
	387.750178	1366.151642	10.304000	-4.900000
	387.850183	1366.154026	10.322000	-4.880000
	387.950189	1366.152834	10.344000	-4.910000
	388.050195	1366.154026	10.302000	-4.890000
	388.150201	1366.155218	10.326000	-4.890000
	388.250206	1366.158795	10.342000	-4.870000
	388.300210	1366.158795	10.342000	-4.870000
	388.450218	1366.152834	10.312000	-4.950000
	388.550223	1366.173103	10.324000	-4.730000
	388.650229	1366.175488	10.312000	-4.880000
	388.750235	1366.161182	10.310000	-5.020000
	388.850241	1366.167143	10.320000	-4.850000
	388.950246	1366.158798	10.330000	-4.970000
	389.050252	1366.145684	10.304000	-5.010000
	389.150258	1366.143300	10.304000	-4.920000
	389.252264	1366.140915	10.338000	-4.920000
	389.350269	1366.131378	10.312000	-4.980000
	389.450275	1366.131378	10.312000	-4.980000
	389.550281	1366.142108	10.312000	-4.810000
	389.650287	1366.145685	10.330000	-4.870000
	389.750292	1366.149261	10.298000	-4.870000
	389.850298	1366.161184	10.300000	-4.800000
	389.950304	1366.158799	10.318000	-4.920000
	390.050309	1366.151646	10.326000	-4.960000
	390.150315	1366.139725	10.290000	-5.000000
	390.259321	1366.161186	10.344000	-4.720000
	390.350327	1366.146880	10.330000	-5.020000
	390.500335	1366.128999	10.316000	-5.050000
	390.600341	1366.150460	10.312000	-4.720000
	390.650344	1366.150460	10.312000	-4.720000
	390.800352	1366.151652	10.344000	-4.890000
	390.902358	1366.150460	10.306000	-4.910000
	391.000364	1366.162382	10.306000	-4.800000
	391.100369	1366.152845	10.336000	-4.980000
	391.200375	1366.140923	10.330000	-5.000000
	391.300381	1366.151653	10.316000	-4.810000
	391.401387	1366.168345	10.344000	-4.760000
	391.500392	1366.169537	10.322000	-4.890000
	391.600398	1366.169537	10.322000	-4.890000
	391.650401	1366.177883	10.328000	-4.830000
	391.800409	1366.187421	10.346000	-4.820000
	391.900415	1366.182652	10.324000	-4.940000
	392.000421	1366.185037	10.288000	-4.880000
	392.100427	1366.187421	10.328000	-4.880000
	392.200432	1366.171923	10.336000	-5.030000
	392.300438	1366.176692	10.304000	-4.860000
	392.400444	1366.193384	10.326000	-4.760000
	392.500450	1366.183847	10.328000	-4.980000
	392.604455	1366.180270	10.308000	-4.930000
	392.700461	1366.180270	10.308000	-4.930000
	392.800467	1366.185039	10.318000	-4.860000
	392.900473	1366.186231	10.336000	-4.890000
	393.000478	1366.180270	10.324000	-4.950000
	393.100484	1366.192193	10.320000	-4.800000
	393.200490	1366.207693	10.338000	-4.770000
	393.300495	1366.196963	10.312000	-4.990000
	393.400501	1366.201732	10.302000	-4.860000
	393.500507	1366.217232	10.346000	-4.770000
	393.619514	1366.206502	10.352000	-4.990000
	393.700518	1366.198157	10.310000	-4.970000
	393.800524	1366.198157	10.310000	-4.970000
	393.900530	1366.204118	10.350000	-4.850000
	394.000535	1366.212464	10.336000	-4.830000
	394.100541	1366.210080	10.278000	-4.920000
	394.200547	1366.211272	10.338000	-4.890000
	394.300552	1366.198158	10.324000	-5.010000
	394.400558	1366.195773	10.298000	-4.920000
	394.503564	1366.196965	10.324000	-4.890000
	394.600570	1366.188620	10.320000	-4.970000
	394.700575	1366.179083	10.300000	-4.980000
	394.800581	1366.179083	10.300000	-4.980000
	394.900587	1366.192198	10.316000	-4.790000
	395.000593	1366.181468	10.320000	-4.990000
	395.100598	1366.174315	10.306000	-4.960000
	395.200604	1366.188622	10.312000	-4.780000
	395.300610	1366.173124	10.342000	-5.030000
	395.400616	1366.170740	10.296000	-4.920000
	395.511622	1366.183855	10.298000	-4.790000
	395.600627	1366.186239	10.320000	-4.880000
	395.700633	1366.175510	10.306000	-4.990000
	395.800638	1366.175510	10.306000	-4.990000
	395.899644	1366.175510	10.290000	-4.900000
	396.049653	1366.196971	10.342000	-4.720000
	396.149658	1366.167168	10.298000	-5.150000
	396.249664	1366.162400	10.312000	-4.940000
	396.349669	1366.162400	10.344000	-4.900000
	396.451675	1366.152862	10.346000	-4.980000
	396.549681	1366.161208	10.314000	-4.830000
	396.649687	1366.175515	10.346000	-4.780000
	396.749692	1366.163594	10.332000	-5.000000
	396.850698	1366.168362	10.320000	-4.860000
	396.949704	1366.168362	10.320000	-4.860000
	397.049710	1366.176708	10.324000	-4.830000
	397.149715	1366.164787	10.330000	-5.000000
	397.249721	1366.163594	10.302000	-4.910000
	397.349727	1366.181479	10.324000	-4.750000
	397.449733	1366.174325	10.340000	-4.960000
	397.549738	1366.167172	10.310000	-4.960000
	397.649744	1366.175518	10.316000	-4.830000
	397.749750	1366.164789	10.342000	-4.990000
	397.855756	1366.145715	10.308000	-5.060000
	397.950761	1366.145715	10.308000	-5.060000
	398.049767	1366.168368	10.330000	-4.710000
	398.149773	1366.180291	10.346000	-4.800000
	398.249778	1366.163601	10.316000	-5.040000
	398.349784	1366.175523	10.304000	-4.800000
	398.449790	1366.158833	10.352000	-5.040000
	398.549796	1366.156449	10.332000	-4.920000
	398.649801	1366.160025	10.312000	-4.870000
	398.752807	1366.162410	10.346000	-4.880000
	398.864814	1366.155257	10.310000	-4.960000
	398.949819	1366.163603	10.344000	-4.830000
	399.049824	1366.156449	10.340000	-4.960000
	399.149830	1366.156449	10.340000	-4.960000
	399.249835	1366.151681	10.304000	-4.940000
	399.349841	1366.171950	10.304000	-4.730000
	399.449847	1366.181488	10.336000	-4.820000
	399.549853	1366.183872	10.332000	-4.880000
	399.649858	1366.189833	10.312000	-4.850000
	399.753864	1366.201756	10.338000	-4.800000
	399.849870	1366.200564	10.342000	-4.910000
	399.950876	1366.217256	10.306000	-4.760000
	400.049881	1366.214872	10.342000	-4.920000
	400.149887	1366.214872	10.342000	-4.920000
	400.299896	1366.217256	10.336000	-4.880000
	400.399901	1366.217256	10.304000	-4.900000
	400.499907	1366.219641	10.340000	-4.880000
	400.599913	1366.216064	10.324000	-4.930000
	400.699919	1366.214872	10.310000	-4.910000
	400.799924	1366.217256	10.318000	-4.880000
	400.899930	1366.208911	10.334000	-4.970000
	400.999936	1366.195797	10.304000	-5.010000
	401.099941	1366.210104	10.334000	-4.780000
	401.149944	1366.210104	10.334000	-4.780000
	401.299953	1366.198182	10.312000	-5.000000
	401.399959	1366.183876	10.316000	-5.020000
	401.499964	1366.191030	10.354000	-4.840000
	401.599970	1366.167187	10.332000	-5.100000
	401.699976	1366.163611	10.330000	-4.930000
	401.799982	1366.168380	10.344000	-4.860000
	401.899987	1366.156458	10.330000	-5.000000
	401.999993	1366.149305	10.322000	-4.960000
	402.103999	1366.149305	10.322000	-4.960000
	402.200005	1366.164804	10.338000	-4.770000
	402.301010	1366.165997	10.330000	-4.890000
	402.400016	1366.170766	10.304000	-4.860000
	402.500021	1366.192227	10.344000	-4.720000
	402.600027	1366.195804	10.316000	-4.870000
	402.700033	1366.202957	10.318000	-4.840000
	402.800039	1366.204150	10.318000	-4.890000
	402.900044	1366.205342	10.344000	-4.890000
	403.000050	1366.211303	10.308000	-4.850000
	403.106056	1366.230380	10.332000	-4.740000
	403.200062	1366.206537	10.336000	-5.100000
	403.300067	1366.206537	10.336000	-5.100000
	403.400073	1366.197000	10.322000	-4.980000
	403.500079	1366.205346	10.338000	-4.830000
	403.600084	1366.194616	10.342000	-4.990000
	403.700090	1366.197000	10.308000	-4.880000
	403.800096	1366.214885	10.312000	-4.750000
	403.900102	1366.213693	10.344000	-4.910000
	404.000107	1366.211308	10.338000	-4.920000
	404.100113	1366.228001	10.338000	-4.760000
	404.200119	1366.229193	10.340000	-4.890000
	404.300125	1366.229193	10.340000	-4.890000
	404.400130	1366.216079	10.332000	-5.010000
	404.500136	1366.231579	10.334000	-4.770000
	404.600142	1366.223233	10.318000	-4.970000
	404.700147	1366.223233	10.298000	-4.900000
	404.801153	1366.228002	10.326000	-4.860000
	404.900159	1366.232772	10.360000	-4.860000
	405.009165	1366.213697	10.324000	-5.060000
	405.100170	1366.218466	10.324000	-4.860000
	405.200176	1366.231581	10.340000	-4.790000
	405.301182	1366.231581	10.340000	-4.790000
	405.400187	1366.224428	10.318000	-4.960000
	405.550196	1366.236351	10.318000	-4.800000
	405.650202	1366.235159	10.354000	-4.910000
	405.750207	1366.225621	10.316000	-4.980000
	405.850213	1366.232774	10.318000	-4.840000
	405.950219	1366.224429	10.358000	-4.970000
	406.050225	1366.222044	10.326000	-4.920000
	406.150230	1366.235160	10.310000	-4.790000
	406.250236	1366.237544	10.336000	-4.880000
	406.351242	1366.237544	10.336000	-4.880000
	406.400245	1366.223238	10.308000	-5.020000
	406.550253	1366.238738	10.310000	-4.770000
	406.650259	1366.229200	10.350000	-4.980000
	406.750265	1366.213702	10.322000	-5.030000
	406.850270	1366.218471	10.318000	-4.860000
	406.950276	1366.208933	10.330000	-4.980000
	407.050282	1366.198203	10.310000	-4.990000
	407.150288	1366.198203	10.324000	-4.900000
	407.250293	1366.198203	10.356000	-4.900000
	407.353299	1366.179129	10.314000	-5.060000
	407.450305	1366.197013	10.342000	-4.750000
	407.550311	1366.197013	10.342000	-4.750000
	407.650316	1366.191052	10.340000	-4.950000
	407.750322	1366.179131	10.298000	-5.000000
	407.850327	1366.180323	10.332000	-4.890000
	407.950333	1366.177938	10.336000	-4.920000
	408.050339	1366.166017	10.324000	-5.000000
	408.150345	1366.169593	10.302000	-4.870000
	408.250350	1366.171978	10.352000	-4.880000
	408.357357	1366.158864	10.324000	-5.010000
	408.450362	1366.164825	10.330000	-4.850000
	408.550367	1366.164825	10.330000	-4.850000
	408.650373	1366.177940	10.340000	-4.790000
	408.750379	1366.173171	10.318000	-4.940000
	408.900388	1366.191056	10.330000	-4.750000
	409.000393	1366.179134	10.354000	-5.000000
	409.100399	1366.167212	10.298000	-5.000000
	409.200405	1366.171981	10.350000	-4.860000
	409.300410	1366.167212	10.324000	-4.940000
	409.400416	1366.177943	10.320000	-4.810000
	409.500422	1366.174366	10.350000	-4.930000
	409.602428	1366.160060	10.332000	-5.020000
	409.700433	1366.173175	10.322000	-4.790000
	409.750436	1366.173175	10.322000	-4.790000
	409.903445	1366.187483	10.328000	-4.780000
	410.000451	1366.163640	10.320000	-5.100000
	410.100456	1366.163640	10.314000	-4.900000
	410.200462	1366.173178	10.352000	-4.820000
	410.300467	1366.148144	10.334000	-5.110000
	410.400474	1366.170797	10.314000	-4.710000
	410.500479	1366.176758	10.336000	-4.850000
	410.600485	1366.183912	10.312000	-4.840000
	410.703491	1366.200604	10.330000	-4.760000
	410.800496	1366.200604	10.330000	-4.760000
	410.900502	1366.198220	10.322000	-4.920000
	411.000508	1366.182721	10.302000	-5.030000
	411.100513	1366.183914	10.302000	-4.890000
	411.200519	1366.173184	10.334000	-4.990000
	411.300525	1366.169608	10.292000	-4.930000
	411.400531	1366.183915	10.364000	-4.780000
	411.500536	1366.168417	10.336000	-5.030000
	411.600542	1366.179147	10.294000	-4.810000
	411.700548	1366.205378	10.330000	-4.680000
	411.800553	1366.191072	10.346000	-5.020000
	411.900559	1366.191072	10.346000	-5.020000
	412.000565	1366.186304	10.312000	-4.940000
	412.100571	1366.201803	10.340000	-4.770000
	412.250579	1366.195842	10.336000	-4.950000
	412.350585	1366.206573	10.328000	-4.810000
	412.450591	1366.218496	10.336000	-4.800000
	412.550596	1366.200613	10.332000	-5.050000
	412.650602	1366.204190	10.302000	-4.870000
	412.750608	1366.201805	10.338000	-4.920000
	412.850614	1366.193460	10.320000	-4.970000
	412.950619	1366.217307	10.320000	-4.700000
	413.056625	1366.217307	10.320000	-4.700000
	413.100628	1366.204193	10.326000	-5.060000
	413.250637	1366.204193	10.326000	-5.060000
	413.349642	1366.224463	10.298000	-4.730000
	413.449648	1366.228040	10.342000	-4.870000
	413.549654	1366.213733	10.322000	-5.020000
	413.649659	1366.226849	10.316000	-4.790000
	413.749665	1366.219695	10.352000	-4.960000
	413.849671	1366.211350	10.310000	-4.970000
	413.949677	1366.236389	10.336000	-4.690000
	414.054682	1366.224467	10.336000	-5.000000
	414.149688	1366.207777	10.314000	-5.040000
	414.249693	1366.207777	10.314000	-5.040000
	414.349699	1366.223277	10.296000	-4.770000
	414.449705	1366.210162	10.340000	-5.010000
	414.549711	1366.214932	10.294000	-4.860000
	414.649716	1366.239971	10.322000	-4.690000
	414.749722	1366.235202	10.336000	-4.940000
	414.849728	1366.239971	10.318000	-4.860000
	414.951734	1366.263819	10.330000	-4.700000
	415.061740	1366.250704	10.324000	-5.010000
	415.149745	1366.242359	10.306000	-4.970000
	415.249751	1366.242359	10.306000	-4.970000
	415.349757	1366.238782	10.336000	-4.930000
	415.449762	1366.224475	10.330000	-5.020000
	415.599771	1366.231629	10.322000	-4.840000
	415.699777	1366.251899	10.344000	-4.730000
	415.799782	1366.241169	10.318000	-4.990000
	415.899788	1366.256669	10.312000	-4.770000
	415.999794	1366.245939	10.330000	-4.990000
	416.099799	1366.235209	10.326000	-4.990000
	416.199805	1366.247132	10.320000	-4.800000
	416.299811	1366.243556	10.336000	-4.930000
	416.400816	1366.239979	10.316000	-4.930000
	416.499822	1366.239979	10.316000	-4.930000
	416.599828	1366.261441	10.330000	-4.720000
	416.700834	1366.260249	10.338000	-4.910000
	416.799839	1366.253096	10.332000	-4.960000
	416.902845	1366.254288	10.340000	-4.890000
	417.001851	1366.239981	10.340000	-5.020000
	417.099856	1366.247135	10.320000	-4.840000
	417.199862	1366.247135	10.340000	-4.900000
	417.299868	1366.228060	10.322000	-5.060000
	417.406874	1366.234021	10.320000	-4.850000
	417.499879	1366.234021	10.320000	-4.850000
	417.599885	1366.238790	10.332000	-4.860000
	417.702891	1366.231637	10.324000	-4.960000
	417.799897	1366.225676	10.310000	-4.950000
	417.949905	1366.224484	10.346000	-4.910000
	418.049911	1366.224484	10.300000	-4.900000
	418.149917	1366.243561	10.326000	-4.740000
	418.249922	1366.242369	10.338000	-4.910000
	418.349928	1366.235215	10.302000	-4.960000
	418.449934	1366.244754	10.328000	-4.820000
	418.549940	1366.234024	10.304000	-4.990000
	418.649945	1366.232832	10.296000	-4.910000
	418.749951	1366.226870	10.336000	-4.950000
	418.849957	1366.226870	10.336000	-4.950000
	418.949963	1366.214949	10.312000	-4.860000
	419.049968	1366.214949	10.312000	-4.860000
	419.149974	1366.228064	10.334000	-4.790000
	419.249979	1366.216142	10.330000	-5.000000
	419.349985	1366.222103	10.330000	-4.850000
	419.449991	1366.244758	10.324000	-4.710000
	419.549997	1366.239989	10.338000	-4.940000
	419.650002	1366.250720	10.322000	-4.810000
	419.700005	1366.250720	10.322000	-4.810000
	419.850014	1366.245951	10.308000	-4.940000
	419.950019	1366.231644	10.330000	-5.020000
	420.050025	1366.211377	10.326000	-5.070000
	420.150031	1366.219723	10.320000	-4.830000
	420.250037	1366.205417	10.344000	-5.020000
	420.350042	1366.217340	10.300000	-4.800000
	420.450048	1366.204226	10.344000	-5.010000
	420.550054	1366.189920	10.298000	-5.020000
	420.650060	1366.188728	10.336000	-4.910000
	420.750065	1366.189920	10.338000	-4.890000
	420.850071	1366.174422	10.322000	-5.030000
	420.950077	1366.181575	10.304000	-4.840000
	421.050083	1366.181575	10.304000	-4.840000
	421.150088	1366.189921	10.354000	-4.830000
	421.300097	1366.181576	10.332000	-4.970000
	421.400103	1366.187537	10.318000	-4.850000
	421.500108	1366.183960	10.344000	-4.930000
	421.600114	1366.169654	10.312000	-5.020000
	421.700119	1366.179192	10.318000	-4.820000
	421.800126	1366.167271	10.328000	-5.000000
	421.900131	1366.172040	10.312000	-4.860000
	422.000137	1366.260297	10.296000	-4.160000
	422.103143	1366.232877	10.336000	-5.130000
	422.213149	1366.222147	10.310000	-4.990000
	422.300154	1366.222147	10.310000	-4.990000
	422.400160	1366.223339	10.322000	-4.890000
	422.500165	1366.193536	10.320000	-5.150000
	422.600171	1366.187574	10.308000	-4.950000
	422.700177	1366.186382	10.364000	-4.910000
	422.800183	1366.167308	10.316000	-5.060000
	422.900188	1366.185192	10.310000	-4.750000
	423.000194	1366.195923	10.338000	-4.810000
	423.104200	1366.188770	10.316000	-4.960000
	423.200205	1366.201885	10.332000	-4.790000
	423.300211	1366.201885	10.332000	-4.790000
	423.400217	1366.199500	10.340000	-4.920000
	423.500223	1366.181618	10.320000	-5.050000
	423.600228	1366.192348	10.332000	-4.810000
	423.700234	1366.186387	10.334000	-4.950000
	423.800240	1366.194733	10.318000	-4.830000
	423.900246	1366.204271	10.340000	-4.820000
	424.003252	1366.191157	10.326000	-5.010000
	424.102257	1366.204272	10.320000	-4.790000
	424.200263	1366.217388	10.316000	-4.790000
	424.300268	1366.217388	10.316000	-4.790000
	424.400274	1366.203081	10.316000	-5.020000
	424.500280	1366.200697	10.314000	-4.920000
	424.650289	1366.201889	10.350000	-4.890000
	424.750294	1366.188775	10.318000	-5.010000
	424.850300	1366.192352	10.324000	-4.870000
	424.950305	1366.182814	10.342000	-4.980000
	425.100314	1366.188776	10.312000	-4.850000
	425.200320	1366.192352	10.348000	-4.870000
	425.300325	1366.184007	10.340000	-4.970000
	425.400331	1366.193545	10.326000	-4.820000
	425.500337	1366.176855	10.356000	-5.040000
	425.600343	1366.179239	10.328000	-4.880000
	425.700348	1366.198316	10.304000	-4.740000
	425.800354	1366.189971	10.344000	-4.970000
	425.900360	1366.195932	10.308000	-4.850000
	426.009366	1366.199509	10.340000	-4.870000
	426.100371	1366.188779	10.330000	-4.990000
	426.200377	1366.198317	10.312000	-4.820000
	426.300383	1366.198317	10.312000	-4.820000
	426.400389	1366.203086	10.358000	-4.860000
	426.500394	1366.199510	10.324000	-4.930000
