LabVIEW Measurement	
Writer_Version	2
Reader_Version	2
Separator	Tab
Decimal_Separator	.
Multi_Headings	No
X_Columns	No
Time_Pref	Relative
Operator	Herve
Date	2023/06/20
Time	17:15:01.9447865486145019532
***End_of_Header***	
	
Channels	4				
Samples	2740	2740	2740	2740	
Date	1904/01/01	1904/01/01	1904/01/01	1904/01/01	
Time	09:00:00	09:00:00	09:00:00	09:00:00	
Y_Unit_Label	s	Hz	mV	°	
X_Dimension	Time	Time	Time	Time	
X0	0.0000000000000000E+0	0.0000000000000000E+0	0.0000000000000000E+0	0.0000000000000000E+0	
Delta_X	1.000000	1.000000	1.000000	1.000000	
***End_of_Header***					
X_Value	Time	Res.Frequency	Amplitude	Phase	Comment
	0.046002	1452.386868	23.158000	-5.860000
	0.146008	1452.393205	23.178000	-5.850000
	0.246014	1452.390670	23.186000	-5.920000
	0.346020	1452.400810	23.158000	-5.820000
	0.447025	1452.391938	23.210000	-5.970000
	0.546031	1452.397008	23.162000	-5.860000
	0.646037	1452.390671	23.178000	-5.950000
	0.746043	1452.391939	23.168000	-5.890000
	0.846048	1452.397008	23.170000	-5.860000
	0.946054	1452.393206	23.200000	-5.930000
	1.046060	1452.395741	23.168000	-5.880000
	1.146065	1452.397009	23.176000	-5.890000
	1.246071	1452.397009	23.176000	-5.890000
	1.346077	1452.391939	23.168000	-5.940000
	1.446083	1452.386869	23.178000	-5.940000
	1.546088	1452.388137	23.176000	-5.890000
	1.646094	1452.385602	23.164000	-5.920000
	1.752100	1452.379265	23.152000	-5.950000
	1.846106	1452.381799	23.194000	-5.880000
	1.946111	1452.377997	23.168000	-5.930000
	2.046117	1452.377997	23.162000	-5.900000
	2.146122	1452.370393	23.188000	-5.960000
	2.245128	1452.364056	23.156000	-5.950000
	2.345134	1452.369126	23.186000	-5.860000
	2.445140	1452.370393	23.180000	-5.890000
	2.545146	1452.366591	23.154000	-5.930000
	2.645151	1452.369126	23.186000	-5.880000
	2.745157	1452.369126	23.186000	-5.880000
	2.845162	1452.369126	23.190000	-5.900000
	2.945168	1452.375463	23.160000	-5.850000
	3.045174	1452.372928	23.178000	-5.920000
	3.145180	1452.365324	23.190000	-5.960000
	3.245185	1452.367859	23.176000	-5.880000
	3.345191	1452.369126	23.198000	-5.890000
	3.445197	1452.364056	23.188000	-5.940000
	3.545203	1452.366591	23.168000	-5.880000
	3.645208	1452.367859	23.208000	-5.890000
	3.745214	1452.369126	23.162000	-5.890000
	3.845220	1452.370393	23.184000	-5.890000
	3.945226	1452.360254	23.190000	-5.980000
	4.045231	1452.360254	23.160000	-5.900000
	4.145237	1452.365324	23.180000	-5.860000
	4.245243	1452.366592	23.164000	-5.890000
	4.345248	1452.364057	23.156000	-5.920000
	4.445254	1452.364057	23.156000	-5.920000
	4.545260	1452.364057	23.180000	-5.900000
	4.645266	1452.356452	23.176000	-5.960000
	4.745271	1452.355185	23.180000	-5.910000
	4.845277	1452.345046	23.188000	-5.980000
	4.945282	1452.345046	23.186000	-5.900000
	5.045289	1452.348848	23.192000	-5.870000
	5.145294	1452.337442	23.190000	-5.990000
	5.245300	1452.342512	23.160000	-5.860000
	5.345305	1452.343779	23.184000	-5.890000
	5.445311	1452.342512	23.174000	-5.910000
	5.545317	1452.348849	23.176000	-5.850000
	5.645323	1452.356454	23.184000	-5.840000
	5.745328	1452.348849	23.154000	-5.960000
	5.845334	1452.352652	23.186000	-5.870000
	5.945340	1452.352652	23.218000	-5.900000
	6.045346	1452.352652	23.218000	-5.900000
	6.145351	1452.350117	23.164000	-5.920000
	6.245357	1452.353919	23.188000	-5.870000
	6.345363	1452.350117	23.172000	-5.930000
	6.445368	1452.356454	23.158000	-5.850000
	6.545374	1452.358989	23.164000	-5.880000
	6.645380	1452.353919	23.172000	-5.940000
	6.745386	1452.353919	23.174000	-5.900000
	6.845391	1452.352652	23.164000	-5.910000
	6.945397	1452.347582	23.198000	-5.940000
	7.045403	1452.346315	23.180000	-5.910000
	7.145409	1452.341245	23.182000	-5.940000
	7.245414	1452.333641	23.176000	-5.960000
	7.345420	1452.337443	23.144000	-5.870000
	7.445426	1452.336176	23.218000	-5.910000
	7.545432	1452.331106	23.170000	-5.940000
	7.645437	1452.331106	23.170000	-5.940000
	7.745443	1452.329839	23.176000	-5.910000
	7.845448	1452.320968	23.192000	-5.970000
	7.945454	1452.318433	23.162000	-5.920000
	8.045460	1452.315898	23.182000	-5.920000
	8.147466	1452.313363	23.224000	-5.920000
	8.245471	1452.315898	23.162000	-5.880000
	8.345477	1452.323503	23.156000	-5.840000
	8.445483	1452.327305	23.188000	-5.870000
	8.545488	1452.323503	23.164000	-5.930000
	8.645494	1452.328572	23.176000	-5.860000
	8.745500	1452.327305	23.204000	-5.910000
	8.845506	1452.320968	23.174000	-5.950000
	8.945511	1452.322235	23.174000	-5.890000
	9.045517	1452.319701	23.200000	-5.920000
	9.145523	1452.315899	23.182000	-5.930000
	9.245529	1452.315899	23.182000	-5.930000
	9.345534	1452.317166	23.168000	-5.890000
	9.445540	1452.310829	23.212000	-5.950000
	9.545546	1452.299423	23.202000	-5.990000
	9.645552	1452.293086	23.176000	-5.950000
	9.745557	1452.295621	23.214000	-5.880000
	9.845563	1452.291819	23.196000	-5.930000
	9.945569	1452.294354	23.170000	-5.880000
	10.046575	1452.300691	23.196000	-5.850000
	10.145580	1452.298156	23.204000	-5.920000
	10.245586	1452.290552	23.168000	-5.960000
	10.345592	1452.293087	23.174000	-5.880000
	10.445597	1452.289285	23.206000	-5.930000
	10.545603	1452.277879	23.194000	-5.990000
	10.645609	1452.282949	23.176000	-5.860000
	10.745615	1452.282949	23.216000	-5.900000
	10.845620	1452.282949	23.216000	-5.900000
	10.945626	1452.277879	23.190000	-5.940000
	11.045631	1452.271543	23.176000	-5.950000
	11.145638	1452.280414	23.184000	-5.830000
	11.245643	1452.280414	23.216000	-5.900000
	11.345649	1452.277880	23.178000	-5.920000
	11.445654	1452.293089	23.182000	-5.780000
	11.545660	1452.293089	23.206000	-5.900000
	11.645666	1452.281683	23.164000	-5.990000
	11.745672	1452.289287	23.194000	-5.840000
	11.845677	1452.291822	23.200000	-5.880000
	11.945683	1452.282951	23.206000	-5.970000
	12.045689	1452.277881	23.190000	-5.940000
	12.145695	1452.286753	23.174000	-5.830000
	12.245700	1452.290555	23.190000	-5.870000
	12.345706	1452.288020	23.200000	-5.920000
	12.445712	1452.285486	23.166000	-5.920000
	12.545717	1452.285486	23.166000	-5.920000
	12.645723	1452.289288	23.200000	-5.870000
	12.745729	1452.284218	23.208000	-5.940000
	12.845735	1452.284218	23.182000	-5.900000
	12.945740	1452.288021	23.162000	-5.870000
	13.045746	1452.291823	23.232000	-5.870000
	13.145752	1452.285486	23.200000	-5.950000
	13.245758	1452.282951	23.172000	-5.920000
	13.345763	1452.284219	23.192000	-5.890000
	13.445769	1452.284219	23.194000	-5.900000
	13.545774	1452.277882	23.198000	-5.950000
	13.645781	1452.280417	23.184000	-5.880000
	13.745786	1452.277882	23.214000	-5.920000
	13.845792	1452.265209	23.200000	-6.000000
	13.945797	1452.267744	23.174000	-5.880000
	14.045803	1452.267744	23.174000	-5.880000
	14.145809	1452.267744	23.202000	-5.900000
	14.245815	1452.267744	23.188000	-5.900000
	14.345820	1452.266476	23.198000	-5.910000
	14.445826	1452.270279	23.182000	-5.870000
	14.545832	1452.271546	23.200000	-5.890000
	14.645838	1452.279150	23.196000	-5.840000
	14.745843	1452.275348	23.174000	-5.930000
	14.845849	1452.276616	23.162000	-5.890000
	14.945855	1452.280418	23.190000	-5.870000
	15.045860	1452.275348	23.216000	-5.940000
	15.145866	1452.271546	23.166000	-5.930000
	15.245872	1452.274081	23.184000	-5.880000
	15.345878	1452.274081	23.196000	-5.900000
	15.445883	1452.266477	23.188000	-5.960000
	15.545889	1452.266477	23.188000	-5.960000
	15.645895	1452.274081	23.154000	-5.840000
	15.745901	1452.275349	23.212000	-5.890000
	15.845906	1452.275349	23.188000	-5.900000
	15.945912	1452.274081	23.176000	-5.910000
	16.045918	1452.285488	23.202000	-5.810000
	16.145924	1452.279151	23.196000	-5.950000
	16.245929	1452.271547	23.188000	-5.960000
	16.345935	1452.277884	23.180000	-5.850000
	16.445940	1452.280419	23.210000	-5.880000
	16.545946	1452.277884	23.228000	-5.920000
	16.645952	1452.269013	23.178000	-5.970000
	16.745958	1452.275350	23.200000	-5.850000
	16.845963	1452.277885	23.196000	-5.880000
	16.945969	1452.274083	23.214000	-5.930000
	17.045975	1452.267746	23.176000	-5.950000
	17.145980	1452.272816	23.178000	-5.860000
	17.245986	1452.272816	23.178000	-5.860000
	17.345992	1452.270281	23.200000	-5.920000
	17.445998	1452.263944	23.202000	-5.950000
	17.546003	1452.265212	23.158000	-5.890000
	17.646009	1452.263944	23.196000	-5.910000
	17.746015	1452.265212	23.188000	-5.890000
	17.846021	1452.258875	23.184000	-5.950000
	17.946026	1452.270282	23.184000	-5.810000
	18.046032	1452.269014	23.214000	-5.910000
	18.146038	1452.263945	23.204000	-5.940000
	18.246044	1452.272817	23.184000	-5.830000
	18.346049	1452.282956	23.180000	-5.820000
	18.446055	1452.277886	23.216000	-5.940000
	18.548061	1452.274084	23.190000	-5.930000
	18.646066	1452.276619	23.182000	-5.880000
	18.746072	1452.276619	23.182000	-5.880000
	18.846078	1452.277886	23.220000	-5.890000
	18.946084	1452.270283	23.188000	-5.960000
	19.046089	1452.267748	23.186000	-5.920000
	19.146095	1452.275352	23.216000	-5.840000
	19.251101	1452.270283	23.226000	-5.940000
	19.346107	1452.272818	23.180000	-5.880000
	19.446112	1452.275352	23.204000	-5.880000
	19.549118	1452.269016	23.202000	-5.950000
	19.645123	1452.269016	23.202000	-5.950000
	19.745129	1452.263946	23.182000	-5.940000
	19.845135	1452.270283	23.200000	-5.850000
	19.945141	1452.266481	23.186000	-5.930000
	20.045146	1452.265214	23.178000	-5.910000
	20.145152	1452.274086	23.198000	-5.830000
	20.245158	1452.263947	23.194000	-5.980000
	20.345163	1452.265214	23.170000	-5.890000
	20.445169	1452.269017	23.178000	-5.870000
	20.545175	1452.262680	23.178000	-5.950000
	20.645181	1452.262680	23.178000	-5.950000
	20.745186	1452.263947	23.196000	-5.890000
	20.845192	1452.267749	23.200000	-5.870000
	20.945198	1452.265215	23.202000	-5.920000
	21.045204	1452.266482	23.178000	-5.890000
	21.145209	1452.272819	23.190000	-5.850000
	21.245215	1452.270284	23.254000	-5.920000
	21.345221	1452.265215	23.186000	-5.940000
	21.445227	1452.266482	23.200000	-5.890000
	21.545232	1452.265215	23.202000	-5.910000
	21.645238	1452.265215	23.202000	-5.910000
	21.745244	1452.258878	23.206000	-5.950000
	21.845249	1452.253809	23.200000	-5.940000
	21.945255	1452.244938	23.202000	-5.970000
	22.045261	1452.241136	23.184000	-5.930000
	22.145267	1452.246206	23.180000	-5.860000
	22.245272	1452.248740	23.222000	-5.880000
	22.345278	1452.242404	23.210000	-5.950000
	22.445284	1452.239869	23.186000	-5.920000
	22.545290	1452.239869	23.186000	-5.920000
	22.645295	1452.243671	23.208000	-5.870000
	22.745301	1452.234800	23.200000	-5.970000
	22.845306	1452.232265	23.170000	-5.920000
	22.945312	1452.237335	23.184000	-5.860000
	23.045318	1452.243672	23.222000	-5.850000
	23.145324	1452.238602	23.184000	-5.940000
	23.245329	1452.239870	23.184000	-5.890000
	23.345335	1452.250009	23.208000	-5.820000
	23.446341	1452.243672	23.200000	-5.950000
	23.545347	1452.238603	23.184000	-5.940000
	23.645352	1452.238603	23.184000	-5.940000
	23.745358	1452.238603	23.170000	-5.900000
	23.845364	1452.239870	23.194000	-5.890000
	23.945370	1452.238603	23.206000	-5.910000
	24.045375	1452.239870	23.176000	-5.890000
	24.145381	1452.241138	23.194000	-5.890000
	24.245387	1452.237336	23.208000	-5.930000
	24.350393	1452.233534	23.186000	-5.930000
	24.445398	1452.233534	23.186000	-5.930000
	24.545404	1452.246207	23.190000	-5.800000
	24.645410	1452.247475	23.214000	-5.890000
	24.745415	1452.246207	23.194000	-5.910000
	24.845421	1452.239871	23.192000	-5.950000
	24.945426	1452.244940	23.164000	-5.860000
	25.045433	1452.248742	23.212000	-5.870000
	25.145438	1452.244940	23.198000	-5.930000
	25.245444	1452.234802	23.190000	-5.980000
	25.345449	1452.238604	23.178000	-5.870000
	25.445455	1452.239871	23.184000	-5.890000
	25.545461	1452.241139	23.194000	-5.890000
	25.645467	1452.239871	23.226000	-5.910000
	25.745472	1452.236070	23.194000	-5.930000
	25.845478	1452.237337	23.180000	-5.890000
	25.945484	1452.246208	23.178000	-5.830000
	26.045490	1452.244941	23.200000	-5.910000
	26.145495	1452.236070	23.210000	-5.970000
	26.254501	1452.236070	23.210000	-5.970000
	26.345507	1452.224665	23.182000	-5.990000
	26.445512	1452.227199	23.170000	-5.880000
	26.545518	1452.232269	23.206000	-5.860000
	26.645524	1452.236071	23.220000	-5.870000
	26.745530	1452.229734	23.222000	-5.950000
	26.845535	1452.224665	23.174000	-5.940000
	26.945541	1452.229734	23.174000	-5.860000
	27.045547	1452.236071	23.218000	-5.850000
	27.147552	1452.241140	23.224000	-5.860000
	27.245558	1452.233537	23.210000	-5.960000
	27.345564	1452.231002	23.192000	-5.920000
	27.445570	1452.231002	23.192000	-5.920000
	27.545576	1452.233537	23.164000	-5.880000
	27.645581	1452.236071	23.222000	-5.880000
	27.746587	1452.233537	23.204000	-5.920000
	27.845592	1452.229735	23.192000	-5.930000
	27.945598	1452.238606	23.206000	-5.830000
	28.045604	1452.238606	23.200000	-5.900000
	28.145610	1452.241141	23.230000	-5.880000
	28.245615	1452.229735	23.178000	-5.990000
	28.345621	1452.237340	23.186000	-5.840000
	28.445627	1452.237340	23.186000	-5.840000
	28.545632	1452.233538	23.208000	-5.930000
	28.645638	1452.227201	23.198000	-5.950000
	28.745644	1452.224667	23.202000	-5.920000
	28.845650	1452.228469	23.208000	-5.870000
	28.945655	1452.220865	23.228000	-5.960000
	29.047661	1452.210727	23.196000	-5.980000
	29.145667	1452.211994	23.174000	-5.890000
	29.245673	1452.219598	23.184000	-5.840000
	29.345678	1452.219598	23.206000	-5.900000
	29.445684	1452.219598	23.206000	-5.900000
	29.545690	1452.206926	23.218000	-6.000000
	29.645696	1452.204391	23.172000	-5.920000
	29.745701	1452.210728	23.180000	-5.850000
	29.845707	1452.213262	23.224000	-5.880000
	29.945713	1452.209460	23.208000	-5.930000
	30.046719	1452.213262	23.166000	-5.870000
	30.145724	1452.219599	23.202000	-5.850000
	30.245730	1452.215797	23.214000	-5.930000
	30.345736	1452.214530	23.198000	-5.910000
	30.445741	1452.214530	23.198000	-5.910000
	30.545747	1452.210728	23.168000	-5.930000
	30.645753	1452.208193	23.196000	-5.920000
	30.745759	1452.211995	23.206000	-5.870000
	30.845764	1452.198056	23.202000	-6.010000
	30.945770	1452.204392	23.194000	-5.850000
	31.045775	1452.208194	23.188000	-5.870000
	31.145782	1452.209462	23.220000	-5.890000
	31.245787	1452.201858	23.174000	-5.960000
	31.345793	1452.201858	23.174000	-5.960000
	31.445798	1452.215799	23.196000	-5.790000
	31.595807	1452.220868	23.210000	-5.860000
	31.695813	1452.214532	23.212000	-5.950000
	31.795818	1452.211997	23.174000	-5.920000
	31.895824	1452.208195	23.202000	-5.930000
	31.995830	1452.204394	23.216000	-5.930000
	32.095836	1452.194256	23.220000	-5.980000
	32.195841	1452.195523	23.170000	-5.890000
	32.295847	1452.199325	23.192000	-5.870000
	32.398853	1452.199325	23.192000	-5.870000
	32.495859	1452.198057	23.216000	-5.910000
	32.595864	1452.198057	23.194000	-5.900000
	32.695870	1452.199325	23.190000	-5.890000
	32.795876	1452.200592	23.200000	-5.890000
	32.895881	1452.192989	23.196000	-5.960000
	32.995887	1452.200592	23.176000	-5.840000
	33.095893	1452.205662	23.212000	-5.860000
	33.195899	1452.203127	23.226000	-5.920000
	33.295904	1452.200593	23.186000	-5.920000
	33.396910	1452.200593	23.186000	-5.920000
	33.495916	1452.196791	23.182000	-5.930000
	33.595922	1452.200593	23.210000	-5.870000
	33.695927	1452.194256	23.218000	-5.950000
	33.795933	1452.192989	23.172000	-5.910000
	33.895938	1452.201860	23.196000	-5.830000
	33.995944	1452.203128	23.236000	-5.890000
	34.095950	1452.198058	23.212000	-5.940000
	34.195956	1452.195524	23.184000	-5.920000
	34.295961	1452.198059	23.170000	-5.880000
	34.395967	1452.198059	23.170000	-5.880000
	34.495973	1452.182852	23.608000	-6.020000
	34.595979	1452.187921	23.194000	-5.860000
	34.695984	1452.191723	23.196000	-5.870000
	34.795990	1452.194258	23.214000	-5.880000
	34.895996	1452.185387	23.198000	-5.970000
	34.996002	1452.184120	23.204000	-5.910000
	35.096007	1452.190456	23.198000	-5.850000
	35.196013	1452.214536	23.234000	-5.710000
	35.301019	1452.203131	23.234000	-5.990000
	35.396024	1452.203131	23.234000	-5.990000
	35.496030	1452.282995	23.148000	-5.270000
	35.596036	1452.212039	23.006000	-6.460000
	35.696042	1452.008094	23.390000	-7.510000
	35.796047	1452.023300	23.182000	-5.780000
	35.896053	1452.047377	23.218000	-5.710000
	35.996058	1452.051179	23.242000	-5.870000
	36.096065	1452.053713	23.208000	-5.880000
	36.196070	1452.056248	23.196000	-5.880000
	36.296076	1452.056248	23.196000	-5.880000
	36.396081	1452.065118	23.198000	-5.830000
	36.496087	1452.057515	23.240000	-5.960000
	36.597093	1452.060050	23.230000	-5.880000
	36.696099	1452.067653	23.220000	-5.840000
	36.796104	1452.075256	23.266000	-5.840000
	36.896110	1452.065119	23.252000	-5.980000
	36.996116	1452.058783	23.232000	-5.950000
	37.096122	1452.054982	23.272000	-5.930000
	37.195127	1452.051180	23.256000	-5.930000
	37.295133	1452.051180	23.256000	-5.930000
	37.395139	1452.041043	23.234000	-5.980000
	37.495144	1452.042311	23.208000	-5.890000
	37.596150	1452.033441	23.230000	-5.970000
	37.695156	1452.009367	23.278000	-6.090000
	37.795162	1451.999231	23.214000	-5.980000
	37.895167	1452.003032	23.234000	-5.870000
	37.995173	1452.009368	23.246000	-5.850000
	38.095179	1452.020772	23.208000	-5.810000
	38.195185	1452.020772	23.208000	-5.810000
	38.295190	1452.052454	23.176000	-5.650000
	38.395196	1452.087939	23.184000	-5.620000
	38.495202	1452.117087	23.230000	-5.670000
	38.595207	1452.162715	23.222000	-5.540000
	38.695213	1452.207076	23.268000	-5.550000
	38.795219	1452.227354	23.314000	-5.740000
	38.895225	1452.231156	23.332000	-5.870000
	38.995230	1452.240027	23.308000	-5.830000
	39.095236	1452.272982	23.328000	-5.640000
	39.195242	1452.297063	23.378000	-5.710000
	39.297247	1452.316075	23.376000	-5.750000
	39.395253	1452.354102	23.382000	-5.600000
	39.495259	1452.374382	23.400000	-5.740000
	39.595264	1452.397198	23.432000	-5.720000
	39.695270	1452.397198	23.432000	-5.720000
	39.795276	1452.409873	23.398000	-5.800000
	39.895282	1452.439028	23.412000	-5.670000
	39.996287	1452.461844	23.430000	-5.720000
	40.095293	1452.475788	23.484000	-5.790000
	40.195299	1452.492267	23.450000	-5.770000
	40.295305	1452.521423	23.516000	-5.670000
	40.395310	1452.541706	23.514000	-5.740000
	40.495316	1452.584810	23.900000	-5.560000
	40.595322	1452.606361	23.486000	-5.730000
	40.695327	1452.619038	23.526000	-5.800000
	40.795333	1452.621574	23.504000	-5.880000
	40.895339	1452.635519	23.498000	-5.790000
	41.001345	1452.640589	23.520000	-5.860000
	41.095350	1452.644392	23.496000	-5.870000
	41.195356	1452.644392	23.496000	-5.870000
	41.295362	1452.644392	23.482000	-5.900000
	41.395368	1452.634251	23.518000	-5.980000
	41.495373	1452.631716	23.500000	-5.920000
	41.595379	1452.634251	23.518000	-5.880000
	41.695385	1452.622843	23.516000	-5.990000
	41.795391	1452.621575	23.510000	-5.910000
	41.896396	1452.555670	23.654000	-6.420000
	41.995402	1452.485967	23.690000	-6.450000
	42.095407	1452.485967	23.690000	-6.450000
	42.195413	1452.508785	23.626000	-5.720000
	42.295419	1452.535406	23.294000	-5.690000
	42.395425	1452.573439	23.584000	-5.600000
	42.495430	1452.531613	23.486000	-6.230000
	42.595436	1452.605153	23.716000	-5.320000
	42.695442	1452.619098	23.538000	-5.790000
	42.795448	1452.606422	23.514000	-6.000000
	42.900454	1452.595014	23.546000	-5.990000
	42.995459	1452.578536	23.506000	-6.030000
	43.095465	1452.578536	23.506000	-6.030000
	43.195470	1452.570930	23.528000	-5.960000
	43.295476	1452.696490	23.244000	-4.910000
	43.395482	1452.853797	23.202000	-4.660000
	43.495488	1452.964150	23.250000	-5.030000
	43.595493	1453.041519	23.212000	-5.290000
	43.695499	1453.111279	23.248000	-5.350000
	43.795505	1453.140447	23.274000	-5.670000
	43.895511	1453.165812	23.270000	-5.700000
	43.995516	1453.173421	23.308000	-5.840000
	44.095522	1453.173421	23.308000	-5.840000
	44.195528	1453.174689	23.284000	-5.890000
	44.295533	1453.174689	23.338000	-5.900000
	44.395539	1453.170885	23.330000	-5.930000
	44.495545	1453.162008	23.326000	-5.970000
	44.595551	1453.148059	23.340000	-6.010000
	44.695556	1453.134111	23.324000	-6.010000
	44.795562	1453.130306	23.340000	-5.930000
	44.895568	1453.118894	23.318000	-5.990000
	44.995574	1453.118894	23.318000	-5.990000
	45.095579	1453.120162	23.352000	-5.890000
	45.195585	1453.107482	23.338000	-6.000000
	45.295590	1453.107482	23.334000	-5.900000
	45.395597	1453.103678	23.336000	-5.930000
	45.495602	1453.098605	23.328000	-5.940000
	45.595608	1453.099873	23.350000	-5.890000
	45.695613	1453.090997	23.322000	-5.970000
	45.798619	1453.208985	23.770000	-4.970000
	45.895625	1453.202644	23.330000	-5.950000
	45.997631	1453.197572	23.310000	-5.940000
	46.095636	1453.197572	23.310000	-5.940000
	46.195642	1453.197572	23.338000	-5.900000
	46.295648	1453.188695	23.318000	-5.970000
	46.395654	1453.181086	23.328000	-5.960000
	46.495659	1453.169674	23.318000	-5.990000
	46.595665	1453.167137	23.294000	-5.920000
	46.700671	1453.154457	23.252000	-6.000000
	46.795676	1453.182358	23.648000	-5.680000
	46.895682	1453.169677	23.460000	-6.000000
	46.995688	1452.977004	23.634000	-7.420000
	47.095694	1452.977004	23.634000	-7.420000
	47.195699	1452.966861	23.556000	-5.980000
	47.295705	1452.955450	23.338000	-5.990000
	47.395710	1452.950378	23.348000	-5.940000
	47.495717	1452.956718	23.368000	-5.850000
	47.595722	1452.956718	23.376000	-5.900000
	47.697728	1453.012519	23.300000	-5.460000
	47.795733	1453.061980	23.346000	-5.510000
	47.895739	1453.101295	23.326000	-5.590000
	47.995745	1453.143148	23.352000	-5.570000
	48.095751	1453.143148	23.352000	-5.570000
	48.195756	1453.158366	23.336000	-5.780000
	48.295762	1453.183730	23.352000	-5.700000
	48.395768	1453.195144	23.342000	-5.810000
	48.495774	1453.233194	23.298000	-5.600000
	48.595779	1453.276319	23.298000	-5.560000
	48.695785	1453.314371	23.140000	-5.600000
	48.797791	1453.329591	23.318000	-5.780000
	48.895796	1453.337201	23.314000	-5.840000
	49.045805	1453.337201	23.314000	-5.840000
	49.145811	1453.323251	23.300000	-6.010000
	49.245817	1453.311837	23.322000	-5.990000
	49.345822	1453.311837	23.286000	-5.900000
	49.445828	1453.285206	23.338000	-6.110000
	49.545834	1453.248431	23.350000	-6.190000
	49.645839	1453.230677	23.356000	-6.040000
	49.745845	1453.214192	23.354000	-6.030000
	49.845851	1453.195171	23.366000	-6.050000
	49.945857	1506.642666	0.328000	74.930000
	50.050863	1506.642666	0.328000	74.930000
	50.145868	1695.054824	0.270000	80.300000
	50.245874	NaN	0.294000	83.000000
	50.345880	NaN	0.296000	82.450000
	50.445885	NaN	0.536000	68.600000
	50.545891	NaN	0.396000	59.880000
	50.645896	NaN	0.416000	68.100000
	50.745903	NaN	4.804000	-83.740000
	50.845908	NaN	4.776000	-83.470000
	50.945914	NaN	0.510000	75.740000
	51.045919	NaN	0.510000	75.740000
	51.145925	NaN	0.314000	80.510000
	51.246931	NaN	0.314000	79.580000
	51.345937	NaN	0.314000	82.740000
	51.445942	NaN	0.318000	81.190000
	51.545948	NaN	0.312000	81.590000
	51.645954	NaN	0.308000	83.130000
	51.745960	NaN	0.308000	83.720000
	51.845965	NaN	0.304000	82.450000
	51.945971	NaN	0.288000	83.220000
	52.045977	NaN	0.288000	83.220000
	52.145982	NaN	0.302000	84.500000
	52.245988	NaN	0.318000	80.900000
	52.345994	NaN	0.310000	85.330000
	52.446000	NaN	0.310000	82.470000
	52.546005	NaN	0.288000	82.900000
	52.646011	NaN	0.318000	82.630000
	52.746017	NaN	0.298000	83.870000
	52.846023	NaN	0.292000	79.030000
	52.951028	NaN	0.308000	85.390000
	53.046034	NaN	0.308000	85.390000
	53.146039	NaN	0.302000	83.990000
	53.246046	NaN	0.298000	87.900000
	53.346051	NaN	0.322000	84.900000
	53.447057	NaN	0.326000	80.450000
	53.546062	NaN	0.306000	87.380000
	53.646068	NaN	0.298000	83.510000
	53.746074	NaN	0.310000	83.130000
	53.850080	NaN	0.310000	81.170000
	53.946085	NaN	0.302000	82.830000
	54.046091	NaN	0.302000	82.830000
	54.146097	NaN	0.300000	84.700000
	54.246103	NaN	0.310000	81.740000
	54.346108	NaN	0.320000	83.410000
	54.446114	NaN	0.308000	83.700000
	54.546120	NaN	0.300000	86.010000
	54.645125	NaN	0.322000	85.210000
	54.745131	NaN	0.328000	81.060000
	54.845137	NaN	0.328000	82.880000
	54.945143	NaN	0.328000	82.880000
	55.045148	NaN	0.284000	81.790000
	55.145154	NaN	0.292000	83.550000
	55.245160	NaN	0.288000	85.820000
	55.345165	NaN	0.306000	86.100000
	55.445171	NaN	0.302000	82.480000
	55.545177	NaN	0.314000	81.580000
	55.645183	NaN	0.312000	82.700000
	55.745188	NaN	0.316000	83.460000
	55.848194	NaN	0.296000	84.410000
	55.945200	NaN	0.296000	84.410000
	56.045206	NaN	0.304000	82.240000
	56.145211	NaN	NaN	83.860000
	56.245217	NaN	NaN	83.860000
	56.345222	NaN	NaN	NaN
	56.445229	NaN	NaN	NaN
	56.546234	NaN	NaN	NaN
	56.645240	NaN	NaN	NaN
	56.745245	NaN	NaN	NaN
	56.845251	NaN	NaN	NaN
	56.945257	NaN	NaN	NaN
	57.045263	NaN	NaN	NaN
	57.145268	NaN	NaN	NaN
	57.245274	NaN	NaN	NaN
	57.345280	NaN	NaN	NaN
	57.445286	NaN	NaN	NaN
	57.545291	NaN	NaN	NaN
	57.647297	NaN	NaN	NaN
	57.745303	NaN	NaN	NaN
	57.845308	NaN	NaN	NaN
	57.945314	NaN	NaN	NaN
	58.045320	NaN	NaN	NaN
	58.145326	NaN	NaN	NaN
	58.245331	NaN	NaN	NaN
	58.345337	NaN	NaN	NaN
	58.445343	NaN	NaN	NaN
	58.545349	NaN	NaN	NaN
	58.645354	NaN	NaN	NaN
	58.745360	NaN	NaN	NaN
	58.845366	NaN	NaN	NaN
	58.945372	NaN	NaN	NaN
	59.045377	NaN	NaN	NaN
	59.145383	NaN	NaN	NaN
	59.245389	NaN	NaN	NaN
	59.345394	NaN	NaN	NaN
	59.445400	NaN	NaN	NaN
	59.545406	NaN	NaN	NaN
	59.645411	NaN	NaN	NaN
	59.745417	NaN	NaN	NaN
	59.845423	NaN	NaN	NaN
	59.945428	NaN	NaN	NaN
	60.045434	NaN	NaN	NaN
	60.145440	NaN	NaN	NaN
	60.245446	NaN	NaN	NaN
	60.345451	NaN	NaN	NaN
	60.445457	NaN	NaN	NaN
	60.545463	1196.021185	0.218000	84.500000
	60.645469	1399.292099	0.194000	80.880000
	60.745474	1321.284854	0.240000	87.850000
	60.845480	NaN	0.192000	83.210000
	60.945486	NaN	0.208000	83.210000
	61.045492	NaN	0.196000	90.290000
	61.145497	NaN	0.208000	88.630000
	61.247503	NaN	0.226000	85.470000
	61.345509	NaN	0.236000	89.520000
	61.445514	NaN	0.208000	82.530000
	61.545520	NaN	0.230000	83.060000
	61.645526	NaN	0.206000	78.310000
	61.745532	NaN	0.188000	88.160000
	61.845537	NaN	0.188000	88.160000
	61.945543	NaN	0.222000	86.410000
	62.045549	NaN	0.212000	88.120000
	62.145555	NaN	0.240000	91.900000
	62.245560	NaN	0.234000	84.360000
	62.345566	NaN	0.236000	83.980000
	62.445571	NaN	0.198000	83.720000
	62.595580	NaN	0.192000	90.000000
	62.695586	NaN	0.208000	90.270000
	62.795592	NaN	0.230000	88.010000
	62.895597	NaN	NaN	83.400000
	62.995603	NaN	NaN	83.400000
	63.095609	NaN	NaN	83.400000
	63.195614	NaN	NaN	NaN
	63.295620	NaN	NaN	NaN
	63.395626	NaN	NaN	NaN
	63.495632	NaN	NaN	NaN
	63.595637	NaN	NaN	NaN
	63.695643	NaN	NaN	NaN
	63.795649	NaN	NaN	NaN
	63.895655	NaN	NaN	NaN
	63.995660	NaN	NaN	NaN
	64.095666	NaN	NaN	NaN
	64.195672	NaN	NaN	NaN
	64.295677	NaN	NaN	NaN
	64.395683	NaN	NaN	NaN
	64.495689	NaN	NaN	NaN
	64.595695	NaN	NaN	NaN
	64.695700	NaN	NaN	NaN
	64.745703	NaN	NaN	NaN
	64.895712	NaN	NaN	NaN
	64.995718	NaN	NaN	NaN
	65.095723	NaN	NaN	NaN
	65.195729	NaN	NaN	NaN
	65.295734	NaN	NaN	NaN
	65.395741	NaN	NaN	NaN
	65.495746	NaN	NaN	NaN
	65.595752	NaN	NaN	NaN
	65.695757	NaN	NaN	NaN
	65.795763	NaN	NaN	NaN
	65.895769	NaN	NaN	NaN
	65.995775	NaN	NaN	NaN
	66.095780	NaN	NaN	NaN
	66.195786	NaN	NaN	NaN
	66.295792	NaN	NaN	NaN
	66.395798	NaN	NaN	NaN
	66.445800	NaN	NaN	NaN
	66.595809	NaN	NaN	NaN
	66.645812	NaN	NaN	NaN
	66.795820	NaN	NaN	NaN
	66.895826	NaN	NaN	NaN
	66.995832	NaN	NaN	NaN
	67.095838	NaN	NaN	NaN
	67.195843	NaN	NaN	NaN
	67.295849	NaN	NaN	NaN
	67.395854	NaN	NaN	NaN
	67.495861	NaN	NaN	NaN
	67.595866	NaN	NaN	NaN
	67.695872	NaN	NaN	NaN
	67.798878	NaN	NaN	NaN
	67.895883	NaN	NaN	NaN
	67.995889	NaN	NaN	NaN
	68.095895	NaN	NaN	NaN
	68.195900	NaN	NaN	NaN
	68.295906	NaN	NaN	NaN
	68.395912	NaN	NaN	NaN
	68.495918	NaN	NaN	NaN
	68.595923	NaN	NaN	NaN
	68.695929	NaN	NaN	NaN
	68.795935	NaN	NaN	NaN
	68.895940	NaN	NaN	NaN
	68.995946	NaN	NaN	NaN
	69.095952	NaN	NaN	NaN
	69.195958	NaN	NaN	NaN
	69.295963	NaN	NaN	NaN
	69.395969	NaN	NaN	NaN
	69.495975	NaN	NaN	NaN
	69.601981	NaN	NaN	NaN
	69.695986	NaN	NaN	NaN
	69.795992	NaN	NaN	NaN
	69.895998	NaN	NaN	NaN
	69.996004	NaN	NaN	NaN
	70.096009	NaN	NaN	NaN
	70.196015	NaN	NaN	NaN
	70.296021	NaN	NaN	NaN
	70.396026	NaN	NaN	NaN
	70.496032	NaN	NaN	NaN
	70.596038	NaN	NaN	NaN
	70.696043	NaN	NaN	NaN
	70.796049	NaN	NaN	NaN
	70.896055	NaN	NaN	NaN
	70.996060	NaN	NaN	NaN
	71.096066	NaN	NaN	NaN
	71.196072	NaN	NaN	NaN
	71.296078	NaN	NaN	NaN
	71.396083	NaN	NaN	NaN
	71.501090	NaN	NaN	NaN
	71.596095	NaN	NaN	NaN
	71.696101	NaN	NaN	NaN
	71.796106	NaN	NaN	NaN
	71.896112	NaN	NaN	NaN
	71.996118	NaN	NaN	NaN
	72.095123	NaN	NaN	NaN
	72.195129	NaN	NaN	NaN
	72.295135	NaN	NaN	NaN
	72.395141	NaN	NaN	NaN
	72.495146	NaN	NaN	NaN
	72.595152	NaN	NaN	NaN
	72.695158	NaN	NaN	NaN
	72.835166	NaN	NaN	NaN
	72.945172	NaN	NaN	NaN
	73.045178	NaN	NaN	NaN
	73.145184	NaN	NaN	NaN
	73.245189	NaN	NaN	NaN
	73.345195	NaN	NaN	NaN
	73.445201	NaN	NaN	NaN
	73.545207	NaN	NaN	NaN
	73.645212	NaN	NaN	NaN
	73.745218	NaN	NaN	NaN
	73.847224	NaN	NaN	NaN
	73.945230	NaN	NaN	NaN
	74.045235	NaN	NaN	NaN
	74.145241	NaN	NaN	NaN
	74.245246	NaN	NaN	NaN
	74.345252	NaN	NaN	NaN
	74.445258	NaN	NaN	NaN
	74.545264	NaN	NaN	NaN
	74.645269	NaN	NaN	NaN
	74.745275	NaN	NaN	NaN
	74.845281	NaN	NaN	NaN
	74.945286	NaN	NaN	NaN
	75.045292	NaN	NaN	NaN
	75.145298	NaN	NaN	NaN
	75.245304	NaN	NaN	NaN
	75.345309	NaN	NaN	NaN
	75.445315	NaN	NaN	NaN
	75.545321	NaN	NaN	NaN
	75.645327	NaN	NaN	NaN
	75.746332	NaN	NaN	NaN
	75.845338	1450.460673	23.344000	-2.270000
	75.945343	1450.852704	23.356000	-2.810000
	76.045350	1451.179949	23.404000	-3.320000
	76.145355	1451.452608	23.420000	-3.750000
	76.245361	1451.684665	23.390000	-4.070000
	76.345366	1451.885014	23.384000	-4.320000
	76.445372	1451.885014	23.384000	-4.320000
	76.545378	1452.044771	23.418000	-4.640000
	76.645384	1452.176628	23.402000	-4.860000
	76.752390	1452.294542	23.406000	-4.970000
	76.845395	1452.395973	23.424000	-5.100000
	76.945401	1452.485995	23.404000	-5.190000
	77.045407	1452.555728	23.390000	-5.350000
	77.145412	1452.611514	23.390000	-5.460000
	77.245418	1452.664766	23.414000	-5.480000
	77.345424	1452.707874	23.380000	-5.560000
	77.445429	1452.748448	23.386000	-5.580000
	77.545435	1452.775073	23.386000	-5.690000
	77.649441	1452.811844	23.392000	-5.610000
	77.745447	1452.833399	23.390000	-5.730000
	77.845452	1452.860026	23.396000	-5.690000
	77.945458	1452.860026	23.396000	-5.690000
	78.048464	1452.873973	23.406000	-5.790000
	78.145470	1452.887920	23.386000	-5.790000
	78.245475	1452.896796	23.392000	-5.830000
	78.345481	1452.910743	23.402000	-5.790000
	78.445487	1452.915815	23.392000	-5.860000
	78.545492	1452.925958	23.394000	-5.820000
	78.651498	1452.927226	23.368000	-5.890000
	78.745504	1452.937370	23.412000	-5.820000
	78.845510	1452.937370	23.412000	-5.820000
	78.945515	1452.941174	23.378000	-5.870000
	79.045521	1452.955122	23.398000	-5.790000
	79.145527	1452.957658	23.408000	-5.880000
	79.245533	1452.961462	23.408000	-5.870000
	79.345538	1452.957658	23.364000	-5.930000
	79.445544	1452.962730	23.414000	-5.860000
	79.545549	1452.969070	23.386000	-5.850000
	79.645555	1452.960194	23.396000	-5.970000
	79.745561	1452.961462	23.380000	-5.890000
	79.845567	1452.961462	23.380000	-5.890000
	79.945572	1452.958926	23.394000	-5.920000
	80.045578	1452.969070	23.376000	-5.820000
	80.145584	1452.961463	23.402000	-5.960000
	80.245590	1452.966534	23.406000	-5.860000
	80.345595	1452.957659	23.380000	-5.970000
	80.445601	1452.958927	23.394000	-5.890000
	80.547607	1452.962731	23.400000	-5.870000
	80.645613	1452.972875	23.390000	-5.820000
	80.745618	1452.972875	23.390000	-5.820000
	80.845624	1452.963999	23.388000	-5.970000
	80.945630	1452.974143	23.384000	-5.820000
	81.045635	1452.967804	23.398000	-5.950000
	81.145641	1452.966536	23.392000	-5.910000
	81.245647	1452.962732	23.390000	-5.930000
	81.345653	1452.966536	23.408000	-5.870000
	81.445658	1452.962732	23.388000	-5.930000
	81.545664	1452.964000	23.410000	-5.890000
	81.645669	1452.964000	23.410000	-5.890000
	81.745676	1452.960196	23.388000	-5.930000
	81.845681	1452.961464	23.410000	-5.890000
	81.945687	1452.962732	23.350000	-5.890000
	82.045692	1452.964000	23.398000	-5.890000
	82.145698	1452.967804	23.386000	-5.870000
	82.245704	1452.969072	23.390000	-5.890000
	82.345710	1452.975412	23.366000	-5.850000
	82.446716	1452.971608	23.380000	-5.930000
	82.545721	1452.966536	23.374000	-5.940000
	82.645727	1452.966536	23.374000	-5.940000
	82.745733	1452.966536	23.396000	-5.900000
	82.845738	1452.967804	23.388000	-5.890000
	82.945744	1452.965268	23.406000	-5.920000
	83.045750	1452.974144	23.392000	-5.830000
	83.145755	1452.974144	23.402000	-5.900000
	83.245761	1452.977948	23.410000	-5.870000
	83.345767	1452.977948	23.398000	-5.900000
	83.448773	1452.983020	23.396000	-5.860000
	83.545778	1452.977948	23.388000	-5.940000
	83.645784	1452.977948	23.388000	-5.940000
	83.745790	1452.985556	23.396000	-5.840000
	83.845796	1452.981752	23.378000	-5.930000
	83.945801	1452.985556	23.384000	-5.870000
	84.045807	1452.985556	23.372000	-5.900000
	84.145813	1452.984288	23.394000	-5.910000
	84.245819	1452.985556	23.372000	-5.890000
	84.350824	1452.989360	23.410000	-5.870000
	84.445830	1452.993164	23.370000	-5.870000
	84.545835	1452.990628	23.394000	-5.920000
	84.645841	1452.993164	23.352000	-5.880000
	84.745847	1452.993164	23.352000	-5.880000
	84.845853	1452.989361	23.386000	-5.930000
	84.945858	1452.991896	23.384000	-5.880000
	85.045864	1452.991896	23.410000	-5.900000
	85.145870	1452.993164	23.358000	-5.890000
	85.245876	1452.990629	23.394000	-5.920000
	85.345881	1452.998237	23.390000	-5.840000
	85.445887	1452.996969	23.364000	-5.910000
	85.545893	1453.000773	23.394000	-5.870000
	85.645898	1453.000773	23.394000	-5.870000
	85.745904	1452.994433	23.368000	-5.950000
	85.845910	1452.994433	23.414000	-5.900000
	85.945916	1453.002041	23.396000	-5.840000
	86.045921	1452.999505	23.384000	-5.920000
	86.145927	1453.005845	23.368000	-5.850000
	86.245933	1452.998237	23.404000	-5.960000
	86.345939	1452.995701	23.382000	-5.920000
	86.445944	1452.993165	23.380000	-5.920000
	86.545950	1452.994433	23.388000	-5.890000
	86.645956	1452.994433	23.388000	-5.890000
	86.745962	1453.003309	23.370000	-5.830000
	86.845967	1453.000774	23.398000	-5.920000
	86.945973	1453.000774	23.374000	-5.900000
	87.045979	1453.008382	23.386000	-5.840000
	87.145984	1453.005846	23.388000	-5.920000
	87.246990	1452.998238	23.388000	-5.960000
	87.345996	1452.999506	23.386000	-5.890000
	87.446002	1452.994434	23.384000	-5.940000
	87.546007	1452.994434	23.384000	-5.940000
	87.646013	1452.998238	23.396000	-5.870000
	87.797021	1452.999506	23.366000	-5.890000
	87.896027	1453.004578	23.406000	-5.860000
	87.996033	1453.002042	23.386000	-5.920000
	88.096039	1453.015991	23.388000	-5.790000
	88.199045	1453.018527	23.376000	-5.880000
	88.298050	1453.015991	23.394000	-5.920000
	88.396056	1453.019795	23.372000	-5.870000
	88.496062	1453.019795	23.394000	-5.900000
	88.596067	1453.021063	23.382000	-5.890000
	88.696073	1453.021063	23.382000	-5.890000
	88.796079	1453.010919	23.380000	-5.980000
	88.896084	1453.009651	23.396000	-5.910000
	88.996090	1453.018527	23.370000	-5.830000
	89.096096	1453.022331	23.382000	-5.870000
	89.196102	1453.026135	23.376000	-5.870000
	89.296107	1453.018528	23.410000	-5.960000
	89.396113	1453.019796	23.388000	-5.890000
	89.496119	1453.013456	23.392000	-5.950000
	89.595124	1453.013456	23.384000	-5.900000
	89.695130	1453.013456	23.384000	-5.900000
	89.795136	1453.010920	23.372000	-5.920000
	89.895142	1453.012188	23.392000	-5.890000
	89.996147	1453.017260	23.366000	-5.860000
	90.095153	1453.009652	23.398000	-5.960000
	90.195158	1453.010920	23.380000	-5.890000
	90.295165	1453.008384	23.380000	-5.920000
	90.395170	1453.008384	23.384000	-5.900000
	90.495176	1453.004580	23.376000	-5.930000
	90.595181	1453.005848	23.402000	-5.890000
	90.695187	1453.005848	23.402000	-5.890000
	90.795193	1453.013456	23.358000	-5.840000
	90.895199	1453.008384	23.392000	-5.940000
	90.995204	1453.010920	23.358000	-5.880000
	91.095210	1453.018529	23.370000	-5.840000
	91.195216	1453.021065	23.390000	-5.880000
	91.295222	1453.031209	23.354000	-5.820000
	91.395227	1453.032477	23.406000	-5.890000
	91.495233	1453.029941	23.382000	-5.920000
	91.595239	1453.024869	23.390000	-5.940000
	91.695244	1453.024869	23.390000	-5.940000
	91.795250	1453.027405	23.372000	-5.880000
	91.895256	1453.022333	23.374000	-5.940000
	91.995262	1453.024869	23.404000	-5.880000
	92.095267	1453.153007	23.522000	-4.890000
	92.195273	1453.128915	23.410000	-6.090000
	92.295279	1453.116234	23.382000	-6.000000
	92.395285	1453.099750	23.360000	-6.030000
	92.495290	1453.094678	23.354000	-5.940000
	92.595296	1453.094678	23.354000	-5.940000
	92.695302	1453.087070	23.370000	-5.960000
	92.795308	1453.080730	23.398000	-5.950000
	92.895313	1453.081998	23.382000	-5.890000
	92.995319	1453.071854	23.394000	-5.980000
	93.095325	1453.070586	23.408000	-5.910000
	93.195330	1453.056638	23.354000	-6.010000
	93.295336	1453.046494	23.398000	-5.980000
	93.395342	1453.043958	23.406000	-5.920000
	93.495347	1453.065516	23.486000	-5.730000
	93.595353	1453.065516	23.486000	-5.730000
	93.695359	1452.989451	23.494000	-6.500000
	93.795365	1452.997059	23.420000	-5.840000
	93.895370	1452.986915	23.418000	-5.980000
	93.995376	1452.964094	23.424000	-6.080000
	94.095382	1452.951415	23.448000	-6.000000
	94.195387	1452.943807	23.408000	-5.960000
	94.295393	1452.928593	23.428000	-6.020000
	94.398399	1452.929861	23.416000	-5.890000
	94.495405	1452.929861	23.416000	-5.890000
	94.595410	1452.914646	23.402000	-6.020000
	94.695416	1452.908307	23.432000	-5.950000
	94.795422	1452.894361	23.404000	-6.010000
	94.895428	1452.885486	23.456000	-5.970000
	94.995433	1452.885486	23.384000	-5.900000
	95.095439	1452.877879	23.426000	-5.960000
	95.195445	1452.872807	23.438000	-5.940000
	95.296451	1452.858861	23.442000	-6.010000
	95.395456	1452.860129	23.410000	-5.890000
	95.495462	1452.848719	23.430000	-5.990000
	95.595468	1452.842380	23.414000	-5.950000
	95.695473	1452.836041	23.422000	-5.950000
	95.795479	1452.853792	23.350000	-5.760000
	95.895485	1452.853792	23.350000	-5.760000
	95.995491	1452.867739	23.362000	-5.790000
	96.095496	1452.891830	23.392000	-5.710000
	96.195502	1452.904510	23.588000	-5.800000
	96.296508	1452.922261	23.364000	-5.760000
	96.395514	1452.936209	23.348000	-5.790000
	96.495519	1452.955229	23.356000	-5.750000
	96.595525	1452.967909	23.376000	-5.800000
	96.695530	1452.971713	23.346000	-5.870000
	96.795537	1452.974249	23.366000	-5.880000
	96.895542	1452.975517	23.334000	-5.890000
	96.995548	1452.976785	23.380000	-5.890000
	97.095553	1452.978053	23.352000	-5.890000
	97.197559	1452.988197	23.370000	-5.820000
	97.295565	1452.992001	23.366000	-5.870000
	97.395571	1452.992001	23.366000	-5.870000
	97.495576	1452.993269	23.364000	-5.890000
	97.595582	1452.989465	23.354000	-5.930000
	97.695588	1452.988197	23.364000	-5.910000
	97.797594	1452.989465	23.348000	-5.890000
	97.895599	1452.983125	23.372000	-5.950000
	97.995605	1452.992001	23.360000	-5.830000
	98.095611	1452.986930	23.398000	-5.940000
	98.195616	1452.992002	23.376000	-5.860000
	98.295622	1452.994538	23.376000	-5.880000
	98.395628	1452.999610	23.362000	-5.860000
	98.495634	1452.999610	23.362000	-5.860000
	98.595639	1453.002146	23.358000	-5.880000
	98.695645	1452.998342	23.386000	-5.930000
	98.795650	1452.998342	23.336000	-5.900000
	98.895657	1452.988198	23.360000	-5.980000
	98.995662	1452.990734	23.358000	-5.880000
	99.095668	1452.989466	23.348000	-5.910000
	99.195673	1452.995806	23.378000	-5.850000
	99.295679	1452.995806	23.348000	-5.900000
	99.395685	1453.003414	23.374000	-5.840000
	99.498691	1453.003414	23.374000	-5.840000
	99.595696	1452.998342	23.358000	-5.940000
	99.695702	1452.999610	23.368000	-5.890000
	99.795708	1452.997074	23.370000	-5.920000
	99.895714	1452.989467	23.382000	-5.960000
	99.995719	1452.989467	23.350000	-5.900000
	100.101726	1452.981859	23.384000	-5.960000
	100.195731	1452.984395	23.382000	-5.880000
	100.295736	1452.984395	23.366000	-5.900000
	100.395742	1452.984395	23.366000	-5.900000
	100.495748	1452.980591	23.380000	-5.930000
	100.645757	1452.980591	23.358000	-5.900000
	100.745762	1452.979323	23.370000	-5.910000
	100.845768	1452.984395	23.366000	-5.860000
	100.946774	1452.983127	23.360000	-5.910000
	101.045779	1452.986931	23.370000	-5.870000
	101.145785	1452.978056	23.378000	-5.970000
	101.245791	1452.978056	23.352000	-5.900000
	101.345797	1452.972984	23.374000	-5.940000
	101.445802	1452.972984	23.374000	-5.940000
	101.546808	1452.972984	23.382000	-5.900000
	101.645813	1452.972984	23.370000	-5.900000
	101.745820	1452.972984	23.374000	-5.900000
	101.845825	1452.974252	23.364000	-5.890000
	101.945831	1452.971716	23.372000	-5.920000
	102.045836	1452.978056	23.354000	-5.850000
	102.145842	1452.978056	23.366000	-5.900000
	102.245848	1452.983128	23.366000	-5.860000
	102.345854	1452.975520	23.370000	-5.960000
	102.445859	1452.979324	23.366000	-5.870000
	102.545865	1452.981860	23.356000	-5.880000
	102.645871	1452.981860	23.356000	-5.880000
	102.745877	1452.980592	23.336000	-5.910000
	102.845882	1452.975520	23.378000	-5.940000
	102.945888	1452.985664	23.364000	-5.820000
	103.045894	1452.980593	23.380000	-5.940000
	103.145899	1452.980593	23.368000	-5.900000
	103.245905	1452.976789	23.382000	-5.930000
	103.345911	1452.983129	23.354000	-5.850000
	103.445917	1452.980593	23.370000	-5.920000
	103.545922	1452.984397	23.358000	-5.870000
	103.646928	1452.975521	23.386000	-5.970000
	103.745934	1452.976789	23.364000	-5.890000
	103.845940	1452.978057	23.380000	-5.890000
	103.945945	1452.980593	23.352000	-5.880000
	104.045951	1452.980593	23.352000	-5.880000
	104.145957	1452.976789	23.368000	-5.930000
	104.245963	1452.983129	23.348000	-5.850000
	104.350968	1452.986933	23.372000	-5.870000
	104.445974	1452.989469	23.380000	-5.880000
	104.545979	1452.993273	23.368000	-5.870000
	104.645985	1452.989469	23.384000	-5.930000
	104.745991	1452.999613	23.360000	-5.820000
	104.845997	1453.002149	23.340000	-5.880000
	104.946002	1453.007221	23.350000	-5.860000
	105.046008	1453.004685	23.362000	-5.920000
	105.146014	1453.011026	23.376000	-5.850000
	105.246019	1453.004686	23.378000	-5.950000
	105.346025	1453.000882	23.362000	-5.930000
	105.446031	1452.993274	23.354000	-5.960000
	105.546037	1453.002150	23.350000	-5.830000
	105.646042	1453.002150	23.350000	-5.830000
	105.746048	1452.999614	23.376000	-5.920000
	105.846054	1452.999614	23.380000	-5.900000
	105.946060	1453.005954	23.388000	-5.850000
	106.046065	1452.999614	23.388000	-5.950000
	106.146071	1453.002150	23.390000	-5.880000
	106.246077	1453.011027	23.348000	-5.830000
	106.346083	1453.013563	23.376000	-5.880000
	106.446088	1453.019903	23.358000	-5.850000
	106.546094	1453.016099	23.364000	-5.930000
	106.646100	1453.011027	23.364000	-5.940000
	106.746105	1453.017367	23.392000	-5.850000
	106.846111	1453.016099	23.356000	-5.910000
	106.946117	1453.021171	23.370000	-5.860000
	107.047122	1453.024975	23.374000	-5.870000
	107.145128	1453.024975	23.372000	-5.900000
	107.248134	1453.024975	23.372000	-5.900000
	107.345140	1453.023707	23.358000	-5.910000
	107.445146	1453.021171	23.368000	-5.920000
	107.545151	1453.016099	23.350000	-5.940000
	107.645157	1453.017367	23.360000	-5.890000
	107.745162	1453.023707	23.348000	-5.850000
	107.845168	1453.018635	23.358000	-5.940000
	107.945174	1453.022439	23.356000	-5.870000
	108.046180	1453.024976	23.380000	-5.880000
	108.147185	1453.024976	23.352000	-5.900000
	108.245191	1453.024976	23.364000	-5.900000
	108.345197	1453.024976	23.364000	-5.900000
	108.445203	1453.027512	23.358000	-5.880000
	108.545208	1453.022440	23.354000	-5.940000
	108.645214	1453.024976	23.360000	-5.880000
	108.745220	1453.019904	23.370000	-5.940000
	108.845225	1453.018636	23.370000	-5.910000
	108.945231	1453.023708	23.338000	-5.860000
	109.045237	1453.021172	23.382000	-5.920000
	109.151243	1453.030048	23.378000	-5.830000
	109.245248	1453.023708	23.378000	-5.950000
	109.345254	1453.023708	23.378000	-5.950000
	109.445260	1453.024976	23.360000	-5.890000
	109.545266	1453.023708	23.358000	-5.910000
	109.645271	1453.030048	23.374000	-5.850000
	109.745277	1453.033852	23.356000	-5.870000
	109.845283	1453.032584	23.376000	-5.910000
	109.945288	1453.036389	23.346000	-5.870000
	110.045294	1453.032585	23.354000	-5.930000
	110.145300	1453.038925	23.366000	-5.850000
	110.245306	1453.038925	23.366000	-5.850000
	110.345311	1453.036389	23.368000	-5.920000
	110.445317	1453.036389	23.388000	-5.900000
	110.545323	1453.036389	23.356000	-5.900000
	110.645329	1453.032585	23.358000	-5.930000
	110.745334	1453.032585	23.360000	-5.900000
	110.845340	1453.022441	23.362000	-5.980000
	110.945345	1453.027513	23.358000	-5.860000
	111.050352	1453.027513	23.320000	-5.900000
	111.145357	1453.026245	23.370000	-5.910000
	111.245363	1453.026245	23.370000	-5.910000
	111.345368	1453.033853	23.358000	-5.840000
	111.445374	1453.027513	23.356000	-5.950000
	111.545380	1453.031317	23.346000	-5.870000
	111.645386	1453.035122	23.346000	-5.870000
	111.745391	1453.038926	23.372000	-5.870000
	111.845397	1453.045266	23.380000	-5.850000
	111.947403	1453.037658	23.350000	-5.960000
	112.045409	1453.041462	23.362000	-5.870000
	112.145414	1453.042730	23.342000	-5.890000
	112.245420	1453.042730	23.342000	-5.890000
	112.345426	1453.038926	23.372000	-5.930000
	112.445431	1453.042730	23.350000	-5.870000
	112.545437	1453.037658	23.366000	-5.940000
	112.645443	1453.032586	23.372000	-5.940000
	112.745449	1453.033854	23.350000	-5.890000
	112.845454	1453.035122	23.374000	-5.890000
	112.946460	1453.038926	23.350000	-5.870000
	113.045465	1453.032586	23.350000	-5.950000
	113.145472	1453.040195	23.376000	-5.840000
	113.245477	1453.038927	23.342000	-5.910000
	113.345483	1453.038927	23.342000	-5.910000
	113.445488	1453.045267	23.360000	-5.850000
	113.545494	1453.042731	23.342000	-5.920000
	113.645500	1453.040195	23.356000	-5.920000
	113.745506	1453.042731	23.364000	-5.880000
	113.845511	1453.049071	23.342000	-5.850000
	113.951518	1453.043999	23.374000	-5.940000
	114.045523	1453.043999	23.352000	-5.900000
	114.145529	1453.043999	23.352000	-5.900000
	114.245534	1453.041463	23.352000	-5.920000
	114.345540	1453.041463	23.370000	-5.900000
	114.445546	1453.054144	23.364000	-5.800000
	114.545551	1453.054144	23.382000	-5.900000
	114.645557	1453.057948	23.384000	-5.870000
	114.745563	1453.051608	23.332000	-5.950000
	114.849569	1453.049072	23.356000	-5.920000
	114.945574	1453.041464	23.354000	-5.960000
	115.045580	1453.038928	23.334000	-5.920000
	115.145586	1453.041464	23.348000	-5.880000
	115.245592	1453.041464	23.348000	-5.880000
	115.345597	1453.042732	23.362000	-5.890000
	115.445603	1453.041464	23.378000	-5.910000
	115.545609	1453.037660	23.362000	-5.930000
	115.645615	1453.033856	23.362000	-5.930000
	115.745620	1453.035124	23.344000	-5.890000
	115.847626	1453.038928	23.350000	-5.870000
	115.945632	1453.040196	23.370000	-5.890000
	116.045637	1453.042732	23.356000	-5.880000
	116.145643	1453.037660	23.330000	-5.940000
	116.245649	1453.046537	23.374000	-5.830000
	116.345654	1453.052877	23.350000	-5.850000
	116.445660	1453.052877	23.350000	-5.850000
	116.545666	1453.050341	23.382000	-5.920000
	116.645671	1453.041465	23.340000	-5.970000
	116.745677	1453.042733	23.382000	-5.890000
	116.845683	1453.051609	23.346000	-5.830000
	116.945689	1453.049073	23.358000	-5.920000
	117.045694	1453.046537	23.358000	-5.920000
	117.145700	1453.044001	23.360000	-5.920000
	117.295709	1453.049073	23.358000	-5.860000
	117.395714	1453.042733	23.350000	-5.950000
	117.495720	1453.046537	23.350000	-5.870000
	117.595726	1453.051610	23.352000	-5.860000
	117.695732	1453.046538	23.376000	-5.940000
	117.795737	1453.049074	23.342000	-5.880000
	117.895743	1453.049074	23.324000	-5.900000
	117.995749	1453.055414	23.358000	-5.850000
	118.095755	1453.055414	23.358000	-5.850000
	118.198761	1453.056682	23.330000	-5.890000
	118.295766	1453.061754	23.360000	-5.860000
	118.395772	1453.069363	23.354000	-5.840000
	118.495778	1453.064291	23.368000	-5.940000
	118.595783	1453.064291	23.342000	-5.900000
	118.696789	1453.061754	23.352000	-5.920000
	118.795794	1453.068095	23.348000	-5.850000
	118.895800	1453.071899	23.350000	-5.870000
	118.995806	1453.064291	23.366000	-5.960000
	119.095812	1453.066827	23.376000	-5.880000
	119.195817	1453.061755	23.356000	-5.940000
	119.295823	1453.061755	23.356000	-5.940000
	119.395829	1453.060487	23.378000	-5.910000
	119.495835	1453.063023	23.344000	-5.880000
	119.595840	1453.060487	23.344000	-5.920000
	119.695846	1453.057951	23.362000	-5.920000
	119.795852	1453.063023	23.350000	-5.860000
	119.895857	1453.065559	23.366000	-5.880000
	119.995863	1453.063023	23.366000	-5.920000
	120.095869	1453.060487	23.320000	-5.920000
	120.195875	1453.060487	23.320000	-5.920000
	120.295880	1453.054147	23.360000	-5.950000
	120.395886	1453.059219	23.346000	-5.860000
	120.495892	1453.059219	23.336000	-5.900000
	120.595898	1453.059219	23.356000	-5.900000
	120.695903	1453.059219	23.350000	-5.900000
	120.795909	1453.061755	23.366000	-5.880000
	120.895915	1453.061755	23.360000	-5.900000
	120.995920	1453.061755	23.346000	-5.900000
	121.105927	1453.057951	23.378000	-5.930000
	121.196932	1453.057951	23.378000	-5.930000
	121.295938	1453.063024	23.346000	-5.860000
	121.395943	1453.064292	23.350000	-5.890000
	121.495949	1453.060487	23.368000	-5.930000
	121.595955	1453.060487	23.366000	-5.900000
	121.695961	1453.066828	23.376000	-5.850000
	121.795966	1453.066828	23.342000	-5.900000
	121.895972	1453.052880	23.312000	-6.010000
	121.995977	1453.055416	23.360000	-5.880000
	122.095984	1453.051612	23.344000	-5.930000
	122.195989	1453.051612	23.344000	-5.930000
	122.295995	1453.052880	23.352000	-5.890000
	122.396000	1453.059220	23.340000	-5.850000
	122.496006	1453.061756	23.356000	-5.880000
	122.596012	1453.063024	23.352000	-5.890000
	122.699018	1453.060488	23.340000	-5.920000
	122.796023	1453.066829	23.366000	-5.850000
	122.896029	1453.071901	23.318000	-5.860000
	122.998035	1453.074437	23.360000	-5.880000
	123.096041	1453.074437	23.360000	-5.880000
	123.196046	1453.071901	23.374000	-5.920000
	123.296052	1453.074437	23.316000	-5.880000
	123.396058	1453.076973	23.354000	-5.880000
	123.496063	1453.075705	23.306000	-5.910000
	123.596069	1453.076973	23.356000	-5.890000
	123.696075	1453.083314	23.338000	-5.850000
	123.796081	1453.078242	23.364000	-5.940000
	123.905087	1453.082046	23.340000	-5.870000
	123.998092	1453.082046	23.352000	-5.900000
	124.097098	1453.082046	23.352000	-5.900000
	124.198103	1453.076974	23.374000	-5.940000
	124.296109	1453.078242	23.346000	-5.890000
	124.398115	1453.074438	23.374000	-5.930000
	124.496120	1453.076974	23.362000	-5.880000
	124.595126	1453.070634	23.364000	-5.950000
	124.695132	1453.078242	23.336000	-5.840000
	124.795138	1453.069366	23.348000	-5.970000
	124.907144	1453.073170	23.362000	-5.870000
	124.995149	1453.057954	23.342000	-6.020000
	125.095155	1453.066831	23.354000	-5.830000
	125.195160	1453.065563	23.346000	-5.910000
	125.295166	1453.059223	23.358000	-5.950000
	125.395172	1453.059223	23.358000	-5.950000
	125.495178	1453.063027	23.330000	-5.870000
	125.595183	1453.070635	23.358000	-5.840000
	125.695189	1453.068099	23.336000	-5.920000
	125.810196	1453.068099	23.336000	-5.920000
	125.895201	1453.066831	23.382000	-5.910000
	125.995206	1453.073172	23.348000	-5.850000
	126.095212	1453.075708	23.344000	-5.880000
	126.195218	1453.080780	23.366000	-5.860000
	126.345226	1453.079512	23.352000	-5.910000
	126.445232	1453.082048	23.364000	-5.880000
	126.497235	1453.082048	23.364000	-5.880000
	126.645244	1453.087120	23.338000	-5.860000
	126.745249	1453.079512	23.366000	-5.960000
	126.845255	1453.079512	23.350000	-5.900000
	126.945261	1453.087121	23.348000	-5.840000
	127.045267	1453.083317	23.354000	-5.930000
	127.145272	1453.087121	23.358000	-5.870000
	127.245278	1453.080781	23.368000	-5.950000
	127.345284	1453.085853	23.326000	-5.860000
	127.445289	1453.088389	23.336000	-5.880000
	127.547295	1453.088389	23.336000	-5.880000
	127.645301	1453.087121	23.342000	-5.910000
	127.745306	1453.090925	23.370000	-5.870000
	127.845312	1453.083317	23.340000	-5.960000
	127.945318	1453.083317	23.354000	-5.900000
	128.045323	1453.074441	23.346000	-5.970000
	128.145329	1453.080781	23.368000	-5.850000
	128.245335	1453.075709	23.366000	-5.940000
	128.345341	1453.076977	23.350000	-5.890000
	128.445346	1453.073173	23.370000	-5.930000
	128.545352	1453.074441	23.346000	-5.890000
	128.645358	1453.076977	23.364000	-5.880000
	128.745364	1453.078245	23.344000	-5.890000
	128.845369	1453.082050	23.356000	-5.870000
	128.945375	1453.079514	23.364000	-5.920000
	129.045381	1453.088390	23.364000	-5.830000
	129.145387	1453.088390	23.364000	-5.830000
	129.245392	1453.078246	23.368000	-5.980000
	129.345398	1453.073174	23.340000	-5.940000
	129.446404	1453.084587	23.376000	-5.810000
	129.545409	1453.076979	23.348000	-5.960000
	129.645415	1453.084587	23.346000	-5.840000
	129.745421	1453.075711	23.354000	-5.970000
	129.845427	1453.080783	23.320000	-5.860000
	129.945432	1453.084587	23.352000	-5.870000
	130.045438	1453.089660	23.354000	-5.860000
	130.145444	1453.092196	23.342000	-5.880000
	130.245450	1453.085856	23.342000	-5.950000
	130.345455	1453.090928	23.356000	-5.860000
	130.445461	1453.088392	23.352000	-5.920000
	130.545466	1453.089660	23.346000	-5.890000
	130.645473	1453.084588	23.356000	-5.940000
	130.745478	1453.084588	23.356000	-5.940000
	130.845484	1453.087124	23.352000	-5.880000
	130.945489	1453.083320	23.386000	-5.930000
	131.045495	1453.082052	23.342000	-5.910000
	131.145501	1453.080784	23.372000	-5.910000
	131.245507	1453.075712	23.354000	-5.940000
	131.345512	1453.087125	23.354000	-5.810000
	131.445518	1453.079516	23.364000	-5.960000
	131.545524	1453.092198	23.356000	-5.800000
	131.645530	1453.085857	23.354000	-5.950000
	131.745535	1453.090930	23.318000	-5.860000
	131.845541	1453.084589	23.354000	-5.950000
	131.945547	1453.088394	23.340000	-5.870000
	132.045552	1453.084590	23.346000	-5.930000
	132.145558	1453.084590	23.346000	-5.930000
	132.245564	1453.082053	23.346000	-5.920000
	132.345570	1453.079517	23.348000	-5.920000
	132.445575	1453.073177	23.336000	-5.950000
	132.545581	1453.075713	23.354000	-5.880000
	132.645587	1453.075713	23.344000	-5.900000
	132.745593	1453.087126	23.332000	-5.810000
	132.845598	1453.083322	23.360000	-5.930000
	132.945604	1453.093467	23.350000	-5.820000
	133.045609	1453.096003	23.360000	-5.880000
	133.145616	1453.101075	23.342000	-5.860000
	133.245621	1453.096003	23.348000	-5.940000
	133.345627	1453.104880	23.320000	-5.830000
	133.445632	1453.111221	23.348000	-5.850000
	133.545638	1453.117561	23.342000	-5.850000
	133.645644	1453.117561	23.342000	-5.850000
	133.745650	1453.113757	23.332000	-5.930000
	133.845655	1453.115025	23.338000	-5.890000
	133.945661	1453.116293	23.346000	-5.890000
	134.045667	1453.121365	23.344000	-5.860000
	134.145673	1453.118829	23.340000	-5.920000
	134.245678	1453.116293	23.344000	-5.920000
	134.345684	1453.109953	23.336000	-5.950000
	134.445690	1453.117562	23.346000	-5.840000
	134.545695	1453.113757	23.352000	-5.930000
	134.645701	1453.120098	23.358000	-5.850000
	134.745707	1453.113758	23.362000	-5.950000
	134.845713	1453.122634	23.350000	-5.830000
	134.945718	1453.117562	23.360000	-5.940000
	135.045724	1453.112490	23.312000	-5.940000
	135.145730	1453.116294	23.352000	-5.870000
	135.245736	1453.116294	23.352000	-5.870000
	135.345741	1453.103614	23.338000	-6.000000
	135.445747	1453.102346	23.312000	-5.910000
	135.545753	1453.096006	23.342000	-5.950000
	135.645759	1453.098542	23.334000	-5.880000
	135.745764	1453.096006	23.360000	-5.920000
	135.845770	1453.099810	23.326000	-5.870000
	135.945776	1453.096006	23.362000	-5.930000
	136.045781	1453.098542	23.336000	-5.880000
	136.145787	1453.098542	23.344000	-5.900000
	136.245793	1453.099810	23.348000	-5.890000
	136.345798	1453.106150	23.328000	-5.850000
	136.445804	1453.099810	23.354000	-5.950000
	136.545810	1453.109955	23.330000	-5.820000
	136.645815	1453.109955	23.330000	-5.820000
	136.745821	1453.111223	23.356000	-5.890000
	136.845827	1453.112491	23.338000	-5.890000
	136.945833	1453.121368	23.356000	-5.830000
	137.045838	1453.111224	23.342000	-5.980000
	137.145844	1453.111224	23.338000	-5.900000
	137.245850	1453.109956	23.352000	-5.910000
	137.345856	1453.111224	23.330000	-5.890000
	137.445861	1453.115028	23.344000	-5.870000
	137.545867	1453.107420	23.338000	-5.960000
	137.645873	1453.118833	23.344000	-5.810000
	137.745879	1453.111225	23.332000	-5.960000
	137.845884	1453.117565	23.322000	-5.850000
	137.945890	1453.120101	23.340000	-5.880000
	138.045896	1453.113761	23.332000	-5.950000
	138.145901	1453.112493	23.364000	-5.910000
	138.245907	1453.112493	23.364000	-5.910000
	138.345913	1453.106153	23.328000	-5.950000
	138.445919	1453.113761	23.342000	-5.840000
	138.545924	1453.111225	23.342000	-5.920000
	138.645930	1453.118834	23.334000	-5.840000
	138.745936	1453.109958	23.356000	-5.970000
	138.845942	1453.112494	23.344000	-5.880000
	138.945947	1453.117566	23.342000	-5.860000
	139.045953	1453.112494	23.332000	-5.940000
	139.145958	1453.116298	23.330000	-5.870000
	139.245965	1453.109958	23.362000	-5.950000
	139.345970	1453.107422	23.342000	-5.920000
	139.445976	1453.109958	23.332000	-5.880000
	139.545981	1453.111226	23.314000	-5.890000
	139.645987	1453.117567	23.344000	-5.850000
	139.745993	1453.117567	23.344000	-5.850000
	139.845999	1453.115030	23.360000	-5.920000
	139.948004	1453.113762	23.346000	-5.910000
	140.046010	1453.112494	23.370000	-5.910000
	140.146016	1453.106154	23.334000	-5.950000
	140.246021	1453.121372	23.358000	-5.780000
	140.346027	1453.113763	23.352000	-5.960000
	140.446033	1453.115031	23.308000	-5.890000
	140.546039	1453.112495	23.354000	-5.920000
	140.646044	1453.111227	23.344000	-5.910000
	140.746050	1453.113763	23.328000	-5.880000
	140.846056	1453.115031	23.346000	-5.890000
	140.946062	1453.113763	23.322000	-5.910000
	141.046067	1453.109959	23.350000	-5.930000
	141.146073	1453.113764	23.346000	-5.870000
	141.246078	1453.113764	23.346000	-5.870000
	141.346085	1453.111227	23.346000	-5.920000
	141.446090	1453.104887	23.338000	-5.950000
	141.546096	1453.107423	23.338000	-5.880000
	141.646101	1453.107423	23.342000	-5.900000
	141.746107	1453.106155	23.338000	-5.910000
	141.847113	1453.102351	23.354000	-5.930000
	141.946119	1453.099815	23.320000	-5.920000
	142.045125	1453.115033	23.350000	-5.780000
	142.145130	1453.111228	23.344000	-5.930000
	142.245136	1453.108692	23.332000	-5.920000
	142.345141	1453.107424	23.348000	-5.910000
	142.445148	1453.097280	23.338000	-5.980000
	142.545153	1453.106157	23.340000	-5.830000
	142.645159	1453.107425	23.356000	-5.890000
	142.745164	1453.102353	23.316000	-5.940000
	142.845170	1453.108693	23.344000	-5.850000
	142.945176	1453.108693	23.344000	-5.850000
	143.045182	1453.109961	23.336000	-5.890000
	143.145187	1453.116302	23.330000	-5.850000
	143.245193	1453.106157	23.340000	-5.980000
	143.345199	1453.104889	23.326000	-5.910000
	143.445204	1453.106157	23.358000	-5.890000
	143.545210	1453.108693	23.340000	-5.880000
	143.645216	1453.113766	23.332000	-5.860000
	143.745222	1453.115034	23.334000	-5.890000
	143.845227	1453.111230	23.336000	-5.930000
	143.945233	1453.117570	23.356000	-5.850000
	144.045239	1453.118838	23.336000	-5.890000
	144.145245	1453.122643	23.340000	-5.870000
	144.245250	1453.116302	23.358000	-5.950000
	144.345256	1453.112498	23.328000	-5.930000
	144.445261	1453.112498	23.328000	-5.930000
	144.545268	1453.122643	23.350000	-5.820000
	144.645273	1453.113767	23.346000	-5.970000
	144.745279	1453.113767	23.330000	-5.900000
	144.845284	1453.109963	23.356000	-5.930000
	144.945290	1453.106158	23.324000	-5.930000
	145.045296	1453.112499	23.350000	-5.850000
	145.145302	1453.107427	23.338000	-5.940000
	145.245307	1453.109963	23.340000	-5.880000
	145.345313	1453.116303	23.348000	-5.850000
	145.445319	1452.994607	23.782000	-6.860000
	145.545325	1453.006019	23.348000	-5.810000
	145.645330	1453.018700	23.354000	-5.800000
	145.745336	1453.033917	23.314000	-5.780000
	145.845342	1453.051670	23.332000	-5.760000
	145.945347	1453.051670	23.332000	-5.760000
	146.045353	1453.056742	23.342000	-5.860000
	146.145359	1453.063082	23.342000	-5.850000
	146.245365	1453.070691	23.350000	-5.840000
	146.345370	1453.083372	23.332000	-5.800000
	146.445376	1453.088444	23.340000	-5.860000
	146.545382	1453.092248	23.362000	-5.870000
	146.645388	1453.089712	23.332000	-5.920000
	146.745393	1453.092248	23.330000	-5.880000
	146.845399	1453.096053	23.352000	-5.870000
	146.945405	1453.096053	23.318000	-5.900000
	147.045410	1453.107466	23.320000	-5.810000
	147.145416	1453.106197	23.356000	-5.910000
	147.245422	1453.108734	23.336000	-5.880000
	147.345428	1453.113806	23.358000	-5.860000
	147.445433	1453.113806	23.338000	-5.900000
	147.547439	1453.110002	23.338000	-5.930000
	147.645445	1453.110002	23.338000	-5.930000
	147.745450	1453.117611	23.358000	-5.840000
	147.845456	1453.113806	23.316000	-5.930000
	147.945462	1453.120147	23.338000	-5.850000
	148.045467	1453.122683	23.360000	-5.880000
	148.145473	1453.121415	23.322000	-5.910000
	148.245479	1453.117611	23.374000	-5.930000
	148.345485	1453.111270	23.326000	-5.950000
	148.445490	1453.117611	23.330000	-5.850000
	148.545496	1453.115075	23.364000	-5.920000
	148.645502	1453.112539	23.330000	-5.920000
	148.745508	1453.117611	23.324000	-5.860000
	148.845513	1453.116343	23.342000	-5.910000
	148.945519	1453.117611	23.324000	-5.890000
	149.045525	1453.117611	23.324000	-5.890000
	149.145531	1453.113807	23.332000	-5.930000
	149.245536	1453.101127	23.326000	-6.000000
	149.345542	1453.099859	23.332000	-5.910000
	149.445548	1453.099859	23.344000	-5.900000
	149.545553	1453.106199	23.304000	-5.850000
	149.645559	1453.110003	23.354000	-5.870000
	149.745565	1453.108735	23.344000	-5.910000
	149.845571	1453.117612	23.332000	-5.830000
	149.945576	1453.120148	23.358000	-5.880000
	150.045582	1453.117612	23.340000	-5.920000
	150.145588	1453.123953	23.340000	-5.850000
	150.245594	1453.115076	23.346000	-5.970000
	150.345599	1453.112540	23.306000	-5.920000
	150.445605	1453.112540	23.306000	-5.920000
	150.545610	1453.121417	23.358000	-5.830000
	150.645617	1453.120149	23.340000	-5.910000
	150.745622	1453.121417	23.336000	-5.890000
	150.845628	1453.123953	23.336000	-5.880000
	150.945633	1453.117613	23.350000	-5.950000
	151.045639	1453.125222	23.306000	-5.840000
	151.145645	1453.127758	23.350000	-5.880000
	151.245651	1453.120149	23.354000	-5.960000
	151.345656	1453.122686	23.336000	-5.880000
	151.445662	1453.117613	23.344000	-5.940000
	151.545668	1453.122686	23.338000	-5.860000
	151.645673	1453.172150	23.082000	-5.510000
	151.745679	1453.201321	23.102000	-5.670000
	151.845685	1453.239371	23.084000	-5.600000
	151.945691	1453.260932	23.106000	-5.730000
	152.045696	1453.260932	23.106000	-5.730000
	152.145702	1453.276151	23.080000	-5.780000
	152.245708	1453.300249	23.082000	-5.710000
	152.345714	1453.319274	23.118000	-5.750000
	152.445719	1453.323079	23.076000	-5.870000
	152.545725	1453.340836	23.100000	-5.760000
	152.645730	1453.349714	23.100000	-5.830000
	152.745737	1453.361129	23.086000	-5.810000
	152.845742	1453.364934	23.106000	-5.870000
	152.945748	1453.367471	23.108000	-5.880000
	153.045753	1453.377617	23.078000	-5.820000
	153.145759	1453.382691	23.120000	-5.860000
	153.245765	1453.382691	23.104000	-5.900000
	153.345771	1453.392838	23.106000	-5.820000
	153.445776	1453.394106	23.100000	-5.890000
	153.545782	1453.400448	23.082000	-5.850000
	153.645788	1453.400448	23.082000	-5.850000
	153.745794	1453.395374	23.128000	-5.940000
	153.845799	1453.401716	23.082000	-5.850000
	153.945805	1453.408058	23.108000	-5.850000
	154.045811	1453.397912	23.092000	-5.980000
	154.145816	1453.413132	23.114000	-5.780000
	154.247822	1453.413132	23.050000	-5.900000
	154.345828	1453.416938	23.072000	-5.870000
	154.445834	1453.415669	23.118000	-5.910000
	154.545839	1453.418206	23.086000	-5.880000
	154.645845	1453.419474	23.124000	-5.890000
	154.745851	1453.413133	23.096000	-5.950000
	154.845857	1453.418206	23.096000	-5.860000
	154.945862	1453.418206	23.112000	-5.900000
	155.045868	1453.415669	23.102000	-5.920000
	155.145874	1453.415669	23.102000	-5.920000
	155.245879	1453.415669	23.114000	-5.900000
	155.345885	1453.416938	23.102000	-5.890000
	155.445891	1453.416938	23.110000	-5.900000
	155.545897	1453.413133	23.072000	-5.930000
	155.645902	1453.418206	23.080000	-5.860000
	155.745908	1453.415670	23.106000	-5.920000
	155.845914	1453.420743	23.086000	-5.860000
	155.945920	1453.427085	23.114000	-5.850000
	156.045925	1453.422012	23.098000	-5.940000
	156.147931	1453.420743	23.096000	-5.910000
	156.245936	1453.422012	23.092000	-5.890000
	156.345942	1453.419475	23.072000	-5.920000
	156.445948	1453.414402	23.110000	-5.940000
	156.545954	1453.408060	23.074000	-5.950000
	156.645959	1453.408060	23.074000	-5.950000
	156.745965	1453.419476	23.096000	-5.810000
	156.845971	1453.414402	23.092000	-5.940000
	156.945977	1453.419476	23.070000	-5.860000
	157.045982	1453.422012	23.090000	-5.880000
	157.145988	1453.418207	23.094000	-5.930000
	157.245994	1453.419476	23.094000	-5.890000
	157.346000	1453.418207	23.108000	-5.910000
	157.446005	1453.418207	23.108000	-5.900000
	157.546011	1453.418207	23.128000	-5.900000
	157.646017	1453.419476	23.076000	-5.890000
	157.746022	1453.418207	23.098000	-5.910000
	157.846028	1453.419476	23.084000	-5.890000
	157.946034	1453.427086	23.098000	-5.840000
	158.047040	1453.428354	23.106000	-5.890000
	158.146045	1453.425818	23.092000	-5.920000
	158.246051	1453.418208	23.112000	-5.960000
	158.346056	1453.418208	23.112000	-5.960000
	158.446063	1453.414403	23.074000	-5.930000
	158.546068	1453.420745	23.118000	-5.850000
	158.646074	1453.416940	23.076000	-5.930000
	158.746079	1453.428355	23.100000	-5.810000
	158.846085	1453.422014	23.090000	-5.950000
	158.946091	1453.425819	23.100000	-5.870000
	159.046097	1453.423282	23.070000	-5.920000
	159.146102	1453.430892	23.090000	-5.840000
	159.246108	1453.433429	23.114000	-5.880000
	159.346114	1453.430892	23.072000	-5.920000
	159.446120	1453.425819	23.094000	-5.940000
	159.545125	1453.420746	23.098000	-5.940000
	159.645131	1453.428356	23.074000	-5.840000
	159.745137	1453.430893	23.118000	-5.880000
	159.845142	1453.430893	23.118000	-5.880000
	159.946148	1453.432161	23.086000	-5.890000
	160.045154	1453.439771	23.096000	-5.840000
	160.145160	1453.429625	23.092000	-5.980000
	160.245165	1453.432162	23.090000	-5.880000
	160.345171	1453.435967	23.110000	-5.870000
	160.445177	1453.443577	23.084000	-5.840000
	160.545183	1453.444846	23.114000	-5.890000
	160.645188	1453.446114	23.076000	-5.890000
	160.745194	1453.446114	23.106000	-5.900000
	160.845200	1453.442309	23.098000	-5.930000
	160.945205	1453.444846	23.094000	-5.880000
	161.045211	1453.437236	23.086000	-5.960000
	161.145217	1453.439772	23.094000	-5.880000
	161.245223	1453.439772	23.094000	-5.880000
	161.345228	1453.437236	23.092000	-5.920000
	161.445234	1453.434699	23.070000	-5.920000
	161.545240	1453.427089	23.104000	-5.960000
	161.645246	1453.433431	23.096000	-5.850000
	161.745251	1453.433431	23.112000	-5.900000
	161.845257	1453.432163	23.076000	-5.910000
	161.945262	1453.439773	23.090000	-5.840000
	162.045268	1453.437236	23.088000	-5.920000
	162.145274	1453.441041	23.116000	-5.870000
	162.245280	1453.377635	22.780000	-6.400000
	162.345285	1453.386514	23.082000	-5.830000
	162.445291	1453.390319	23.090000	-5.870000
	162.545297	1453.396660	23.084000	-5.850000
	162.645303	1453.406807	23.108000	-5.820000
	162.745308	1453.409344	23.082000	-5.880000
	162.845314	1453.414418	23.124000	-5.860000
	162.945320	1453.414418	23.124000	-5.860000
	163.045325	1453.408076	23.074000	-5.950000
	163.145331	1453.415686	23.068000	-5.840000
	163.245337	1453.414418	23.098000	-5.910000
	163.345343	1453.424565	23.096000	-5.820000
	163.445348	1453.427102	23.116000	-5.880000
	163.545354	1453.423297	23.066000	-5.930000
	163.645360	1453.422028	23.082000	-5.910000
	163.745366	1453.428370	23.096000	-5.850000
	163.845371	1453.423297	23.108000	-5.940000
	163.945377	1453.429639	23.082000	-5.850000
	164.045382	1453.432175	23.116000	-5.880000
	164.145389	1453.433444	23.086000	-5.890000
	164.245394	1453.435981	23.104000	-5.880000
	164.345400	1453.428371	23.062000	-5.960000
	164.445405	1453.428371	23.062000	-5.960000
	164.545411	1453.430907	23.104000	-5.880000
	164.645417	1453.432176	23.086000	-5.890000
	164.745423	1453.437249	23.078000	-5.860000
	164.845428	1453.437249	23.104000	-5.900000
	164.945434	1453.439786	23.070000	-5.880000
	165.045440	1453.435981	23.096000	-5.930000
	165.145446	1453.437249	23.076000	-5.890000
	165.245451	1453.439786	23.114000	-5.880000
	165.345457	1453.433444	23.094000	-5.950000
	165.445463	1453.434713	23.106000	-5.890000
	165.545468	1453.433444	23.080000	-5.910000
	165.645474	1453.437250	23.094000	-5.870000
	165.745480	1453.433444	23.100000	-5.930000
	165.845486	1453.434713	23.102000	-5.890000
	165.945491	1453.429639	23.114000	-5.940000
	166.045497	1453.429639	23.114000	-5.940000
	166.145503	1453.435981	23.066000	-5.850000
	166.245509	1453.434713	23.120000	-5.910000
	166.345514	1453.446129	23.080000	-5.810000
	166.445520	1453.448666	23.116000	-5.880000
	166.545526	1453.443592	23.064000	-5.940000
	166.645531	1453.448666	23.100000	-5.860000
	166.745537	1453.443592	23.076000	-5.940000
	166.845543	1453.443592	23.078000	-5.900000
	166.945549	1453.434714	23.074000	-5.970000
	167.045554	1453.433446	23.060000	-5.910000
	167.145560	1453.428372	23.086000	-5.940000
	167.245566	1453.444862	23.090000	-5.770000
	167.345572	1453.444862	23.102000	-5.900000
	167.445577	1453.448667	23.092000	-5.870000
	167.545583	1453.448667	23.092000	-5.870000
	167.645588	1453.453741	23.094000	-5.860000
	167.745595	1453.452472	23.064000	-5.910000
	167.845600	1453.455009	23.082000	-5.880000
	167.945606	1453.451204	23.078000	-5.930000
	168.045611	1453.453741	23.108000	-5.880000
	168.145617	1453.452472	23.090000	-5.910000
	168.245623	1453.457546	23.100000	-5.860000
	168.345629	1453.456278	23.102000	-5.910000
	168.445634	1453.453741	23.064000	-5.920000
	168.545640	1453.456278	23.094000	-5.880000
	168.645646	1453.462620	23.102000	-5.850000
	168.745652	1453.457546	23.102000	-5.940000
	168.845657	1453.462620	23.088000	-5.860000
	168.945663	1453.457546	23.096000	-5.940000
	169.045669	1453.462620	23.070000	-5.860000
	169.145674	1453.463888	23.110000	-5.890000
	169.245680	1453.463888	23.110000	-5.890000
	169.345686	1453.457547	23.094000	-5.950000
	169.445692	1453.458815	23.084000	-5.890000
	169.545697	1453.453741	23.056000	-5.940000
	169.645703	1453.443595	23.118000	-5.980000
	169.745709	1453.444863	23.090000	-5.890000
	169.845715	1453.444863	23.080000	-5.900000
	169.945720	1453.447400	23.086000	-5.880000
	170.045726	1453.451205	23.104000	-5.870000
	170.145731	1453.448668	23.066000	-5.920000
	170.245738	1453.453742	23.094000	-5.860000
	170.345743	1453.453742	23.104000	-5.900000
	170.445749	1453.456279	23.088000	-5.880000
	170.545754	1453.460084	23.072000	-5.870000
	170.645760	1453.457547	23.108000	-5.920000
	170.745766	1453.446132	23.110000	-5.990000
	170.845772	1453.446132	23.110000	-5.990000
	170.945777	1453.449937	23.088000	-5.870000
	171.045783	1453.444864	23.084000	-5.940000
	171.145789	1453.458817	23.078000	-5.790000
	171.245795	1453.449938	23.090000	-5.970000
	171.345800	1453.456280	23.094000	-5.850000
	171.445806	1453.449939	23.092000	-5.950000
	171.546812	1453.457549	23.090000	-5.840000
	171.645817	1453.455012	23.084000	-5.920000
	171.745823	1453.461354	23.110000	-5.850000
	171.845829	1453.461354	23.104000	-5.900000
	171.945835	1453.467696	23.112000	-5.850000
	172.045840	1453.462623	23.072000	-5.940000
	172.145846	1453.461354	23.110000	-5.910000
	172.245852	1453.455013	23.058000	-5.950000
	172.345858	1453.452476	23.102000	-5.920000
	172.445863	1453.452476	23.102000	-5.920000
	172.545869	1453.448671	23.076000	-5.930000
	172.645875	1453.449939	23.098000	-5.890000
	172.745881	1453.451208	23.082000	-5.890000
	172.845886	1453.457550	23.100000	-5.850000
	172.945892	1453.458818	23.066000	-5.890000
	173.045897	1453.470234	23.104000	-5.810000
	173.145903	1453.462624	23.100000	-5.960000
	173.245909	1453.458819	23.098000	-5.930000
	173.345915	1453.458819	23.082000	-5.900000
	173.445920	1453.457550	23.090000	-5.910000
	173.545926	1453.456282	23.096000	-5.910000
	173.645932	1453.456282	23.104000	-5.900000
	173.745938	1453.467698	23.086000	-5.810000
	173.845943	1453.466429	23.094000	-5.910000
	173.945949	1453.466429	23.094000	-5.910000
	174.045955	1453.465161	23.094000	-5.910000
	174.145960	1453.462624	23.080000	-5.920000
	174.245966	1453.466429	23.094000	-5.870000
	174.345972	1453.470235	23.088000	-5.870000
	174.445978	1453.466430	23.112000	-5.930000
	174.545983	1453.465161	23.052000	-5.910000
	174.645989	1453.475309	23.102000	-5.820000
	174.745995	1453.479114	23.066000	-5.870000
	174.846001	1453.479114	23.092000	-5.900000
	174.946006	1453.477845	23.078000	-5.910000
	175.046012	1453.475309	23.114000	-5.920000
	175.146018	1453.474040	23.068000	-5.910000
	175.246023	1453.471504	23.074000	-5.920000
	175.346029	1453.475309	23.088000	-5.870000
	175.446035	1453.471504	23.086000	-5.930000
	175.546041	1453.471504	23.086000	-5.930000
	175.646046	1453.471504	23.070000	-5.900000
	175.746052	1453.470235	23.108000	-5.910000
	175.846058	1453.472772	23.092000	-5.880000
	175.946064	1453.472772	23.080000	-5.900000
	176.046069	1453.474040	23.090000	-5.890000
	176.146075	1453.476577	23.100000	-5.880000
	176.246080	1453.480383	23.102000	-5.870000
	176.396089	1453.476577	23.072000	-5.930000
	176.446092	1453.468967	23.092000	-5.960000
	176.546098	1453.472772	23.070000	-5.870000
	176.646103	1453.471504	23.112000	-5.910000
	176.746109	1453.474041	23.092000	-5.880000
	176.846115	1453.474041	23.092000	-5.880000
	176.946121	1453.467699	23.078000	-5.950000
	177.045126	1453.467699	23.102000	-5.900000
	177.145132	1453.462626	23.100000	-5.940000
	177.245138	1453.467699	23.106000	-5.860000
	177.345143	1453.463894	23.080000	-5.930000
	177.445149	1453.463894	23.118000	-5.900000
	177.545155	1453.463894	23.100000	-5.900000
	177.645161	1453.466431	23.086000	-5.880000
	177.745166	1453.470236	23.084000	-5.870000
	177.845172	1453.467699	23.104000	-5.920000
	177.945178	1453.468968	23.080000	-5.890000
	178.045184	1453.462626	23.112000	-5.950000
	178.145189	1453.471505	23.094000	-5.830000
	178.245195	1453.474042	23.076000	-5.880000
	178.345201	1453.479115	23.106000	-5.860000
	178.445206	1453.479115	23.106000	-5.860000
	178.545212	1453.470237	23.112000	-5.970000
	178.645218	1453.472774	23.090000	-5.880000
	178.795227	1453.468968	23.080000	-5.930000
	178.895232	1453.468968	23.112000	-5.900000
	178.995238	1453.474042	23.066000	-5.860000
	179.095243	1453.474042	23.088000	-5.900000
	179.195249	1453.474042	23.082000	-5.900000
	179.295255	1453.474042	23.080000	-5.900000
	179.395261	1453.471505	23.102000	-5.920000
	179.495266	1453.471505	23.088000	-5.900000
	179.595272	1453.475311	23.108000	-5.870000
	179.695278	1453.471505	23.070000	-5.930000
	179.795284	1453.476579	23.080000	-5.860000
	179.895289	1453.468969	23.092000	-5.960000
	179.995295	1453.465164	23.100000	-5.930000
	180.095301	1453.465164	23.100000	-5.930000
	180.195306	1453.460090	23.086000	-5.940000
	180.295312	1453.462627	23.106000	-5.880000
	180.395318	1453.471506	23.066000	-5.830000
	180.495324	1453.471506	23.108000	-5.900000
	180.595329	1453.479117	23.074000	-5.840000
	180.695335	1453.471506	23.088000	-5.960000
	180.795341	1453.481654	23.084000	-5.820000
	180.895347	1453.481654	23.098000	-5.900000
	180.995352	1453.482922	23.098000	-5.890000
	181.095358	1453.487996	23.084000	-5.860000
	181.195364	1453.486728	23.100000	-5.910000
	181.295370	1453.484191	23.082000	-5.920000
	181.395375	1453.481654	23.096000	-5.920000
	181.495381	1453.481654	23.096000	-5.920000
	181.595387	1453.486728	23.064000	-5.860000
	181.695392	1453.485459	23.088000	-5.910000
	181.795398	1453.484191	23.084000	-5.910000
	181.895404	1453.482923	23.076000	-5.910000
	181.995409	1453.487996	23.078000	-5.860000
	182.095415	1453.476581	23.118000	-5.990000
	182.195421	1453.487997	23.064000	-5.810000
	182.295426	1453.482924	23.084000	-5.940000
	182.395432	1453.489266	23.096000	-5.850000
	182.495438	1453.482924	23.100000	-5.950000
	182.595444	1453.485461	23.100000	-5.880000
	182.695449	1453.482924	23.074000	-5.920000
	182.795455	1453.486729	23.090000	-5.870000
	182.895461	1453.489266	23.072000	-5.880000
	182.995467	1453.489266	23.072000	-5.880000
	183.095472	1453.486729	23.088000	-5.920000
	183.195478	1453.491803	23.066000	-5.860000
	183.295484	1453.489266	23.082000	-5.920000
	183.395490	1453.487998	23.092000	-5.910000
	183.495495	1453.493071	23.088000	-5.860000
	183.595501	1453.490535	23.090000	-5.920000
	183.695507	1453.490535	23.078000	-5.900000
	183.795512	1453.490535	23.090000	-5.900000
	183.895518	1453.484193	23.072000	-5.950000
	183.995524	1453.490535	23.118000	-5.850000
	184.095530	1453.498145	23.108000	-5.840000
	184.195535	1453.495609	23.092000	-5.920000
	184.295541	1453.496877	23.064000	-5.890000
	184.395547	1453.493072	23.082000	-5.930000
	184.495553	1453.495609	23.070000	-5.880000
	184.595558	1453.495609	23.070000	-5.880000
	184.695564	1453.490535	23.096000	-5.940000
	184.795569	1453.494340	23.072000	-5.870000
	184.895576	1453.494340	23.100000	-5.900000
	184.995581	1453.496877	23.094000	-5.880000
	185.095587	1453.493072	23.082000	-5.930000
	185.195592	1453.491804	23.092000	-5.910000
	185.295598	1453.489267	23.064000	-5.920000
	185.395604	1453.490535	23.084000	-5.890000
	185.495610	1453.489267	23.090000	-5.910000
	185.595615	1453.484193	23.078000	-5.940000
	185.695621	1453.491804	23.078000	-5.840000
	185.795627	1453.491804	23.078000	-5.900000
	185.895632	1453.498146	23.072000	-5.850000
	185.995638	1453.491804	23.082000	-5.950000
	186.095644	1453.491804	23.082000	-5.950000
	186.195650	1453.493073	23.092000	-5.890000
	186.296655	1453.490536	23.064000	-5.920000
	186.395661	1453.494341	23.114000	-5.870000
	186.495667	1453.489268	23.082000	-5.940000
	186.595673	1453.486731	23.070000	-5.920000
	186.695678	1453.500684	23.086000	-5.790000
	186.795684	1453.498147	23.090000	-5.920000
	186.895689	1453.507026	23.062000	-5.830000
	186.995696	1453.498148	23.086000	-5.970000
	187.095701	1453.495611	23.104000	-5.920000
	187.195707	1453.501953	23.078000	-5.850000
	187.295712	1453.500685	23.088000	-5.910000
	187.395718	1453.500685	23.088000	-5.910000
	187.495724	1453.498148	23.092000	-5.920000
	187.595730	1453.489269	23.090000	-5.970000
	187.695735	1453.490538	23.078000	-5.890000
	187.795741	1453.491806	23.078000	-5.890000
	187.895747	1453.493074	23.090000	-5.890000
	187.995753	1453.494343	23.086000	-5.890000
	188.095758	1453.494343	23.086000	-5.900000
	188.195764	1453.489269	23.068000	-5.940000
	188.295770	1453.490538	23.076000	-5.890000
	188.395775	1453.491806	23.074000	-5.890000
	188.495781	1453.496880	23.106000	-5.860000
	188.595787	1453.496880	23.080000	-5.900000
	188.695793	1453.490538	23.084000	-5.950000
	188.795798	1453.486733	23.060000	-5.930000
	188.895804	1453.481659	23.092000	-5.940000
	188.995810	1453.481659	23.092000	-5.940000
	189.095816	1453.485464	23.078000	-5.870000
	189.197822	1453.485464	23.078000	-5.900000
	189.295827	1453.486733	23.084000	-5.890000
	189.395833	1453.486733	23.082000	-5.900000
	189.495838	1453.486733	23.122000	-5.900000
	189.595844	1453.481659	23.072000	-5.940000
	189.695850	1453.481659	23.094000	-5.900000
	189.795856	1453.488001	23.086000	-5.850000
	189.895861	1453.488001	23.088000	-5.900000
	189.995867	1453.488001	23.072000	-5.900000
	190.095873	1453.476586	23.086000	-5.990000
	190.195879	1453.481660	23.108000	-5.860000
	190.295884	1453.485465	23.102000	-5.870000
	190.395890	1453.484197	23.092000	-5.910000
	190.495895	1453.476586	23.086000	-5.960000
	190.595901	1453.476586	23.086000	-5.960000
	190.695907	1453.479123	23.086000	-5.880000
	190.795913	1453.477855	23.086000	-5.910000
	190.895918	1453.484197	23.102000	-5.850000
	190.995924	1453.490539	23.106000	-5.850000
	191.096930	1453.493076	23.072000	-5.880000
	191.195936	1453.489271	23.074000	-5.930000
	191.295941	1453.489271	23.086000	-5.900000
	191.395947	1453.485466	23.070000	-5.930000
	191.495953	1453.479124	23.098000	-5.950000
	191.595959	1453.482929	23.064000	-5.870000
	191.695964	1453.479124	23.078000	-5.930000
	191.795970	1453.482929	23.070000	-5.870000
	191.895976	1453.480392	23.054000	-5.920000
	191.995981	1453.484198	23.064000	-5.870000
	192.095987	1453.484198	23.064000	-5.870000
	192.195993	1453.482929	23.090000	-5.910000
	192.295999	1453.481661	23.098000	-5.910000
	192.396004	1453.484198	23.074000	-5.880000
	192.496010	1453.485466	23.106000	-5.890000
	192.596016	1453.482929	23.084000	-5.920000
	192.696022	1453.489271	23.096000	-5.850000
	192.796027	1453.494345	23.086000	-5.860000
	192.896033	1453.499419	23.094000	-5.860000
	192.996038	1453.499419	23.062000	-5.900000
	193.096044	1453.493077	23.064000	-5.950000
	193.196050	1453.495614	23.046000	-5.880000
	193.296056	1453.490540	23.100000	-5.940000
	193.396061	1453.494345	23.070000	-5.870000
	193.496067	1453.503225	23.090000	-5.830000
	193.596073	1453.508298	23.080000	-5.860000
	193.696079	1453.500688	23.084000	-5.960000
	193.796084	1453.500688	23.084000	-5.960000
	193.896090	1453.509567	23.090000	-5.830000
	193.996096	1453.512104	23.056000	-5.880000
	194.096101	1453.507030	23.072000	-5.940000
	194.196107	1453.504494	23.068000	-5.920000
	194.296113	1453.504494	23.094000	-5.900000
	194.396119	1453.509567	23.064000	-5.860000
	194.495124	1453.501957	23.098000	-5.960000
	194.595130	1453.503226	23.082000	-5.890000
	194.695136	1453.496884	23.114000	-5.950000
	194.795142	1453.504494	23.056000	-5.840000
	194.896147	1453.504494	23.088000	-5.900000
	194.995153	1453.508300	23.058000	-5.870000
	195.095159	1453.508300	23.082000	-5.900000
	195.195164	1453.505763	23.068000	-5.920000
	195.295170	1453.498152	23.082000	-5.960000
	195.395176	1453.498152	23.082000	-5.960000
	195.495182	1453.507032	23.060000	-5.830000
	195.595187	1453.500690	23.088000	-5.950000
	195.695193	1453.500690	23.068000	-5.900000
	195.795199	1453.496884	23.072000	-5.930000
	195.895205	1453.504495	23.074000	-5.840000
	195.995210	1453.499421	23.068000	-5.940000
	196.095216	1453.504495	23.080000	-5.860000
	196.195221	1453.510837	23.082000	-5.850000
	196.295228	1453.510837	23.062000	-5.900000
	196.395233	1453.513374	23.058000	-5.880000
	196.495239	1453.520985	23.106000	-5.840000
	196.595244	1453.520985	23.062000	-5.900000
	196.695250	1453.512106	23.092000	-5.970000
	196.795256	1453.515912	23.080000	-5.870000
	196.895262	1453.515912	23.080000	-5.870000
	196.995267	1453.517180	23.106000	-5.890000
	197.095273	1453.515912	23.060000	-5.910000
	197.195279	1453.504496	23.100000	-5.990000
	197.295284	1453.498154	23.072000	-5.950000
	197.395290	1453.500691	23.082000	-5.880000
	197.495296	1453.503228	23.070000	-5.880000
	197.595302	1453.501960	23.084000	-5.910000
	197.695307	1453.503228	23.060000	-5.890000
	197.795313	1453.495618	23.064000	-5.960000
	197.895319	1453.498155	23.060000	-5.880000
	197.995325	1453.499423	23.062000	-5.890000
	198.095330	1453.509571	23.072000	-5.820000
	198.195336	1453.510839	23.076000	-5.890000
	198.295341	1453.505765	23.092000	-5.940000
	198.395348	1453.504497	23.078000	-5.910000
	198.495353	1453.504497	23.078000	-5.910000
	198.595359	1453.503229	23.094000	-5.910000
	198.695364	1453.508302	23.074000	-5.860000
	198.795370	1453.503229	23.088000	-5.940000
	198.895376	1453.508303	23.080000	-5.860000
	198.995382	1453.542554	23.006000	-5.630000
	199.095387	1453.581882	22.892000	-5.590000
	199.195393	1453.559051	23.050000	-6.080000
	199.295399	1453.557783	23.098000	-5.910000
	199.395405	1453.552709	23.078000	-5.940000
	199.495410	1453.546367	23.072000	-5.950000
	199.595416	1453.536219	23.092000	-5.980000
	199.695422	1453.540025	23.076000	-5.870000
	199.795427	1453.529877	23.050000	-5.980000
	199.895433	1453.536220	23.074000	-5.850000
	199.995439	1453.534951	23.084000	-5.910000
	200.095445	1453.534951	23.084000	-5.910000
	200.195450	1453.531146	23.090000	-5.930000
	200.295456	1453.524804	23.054000	-5.950000
	200.395462	1453.532415	23.092000	-5.840000
	200.495468	1453.522268	23.060000	-5.980000
	200.595473	1453.520999	23.076000	-5.910000
	200.695479	1453.528610	23.076000	-5.840000
	200.795485	1453.528610	23.074000	-5.900000
	200.895490	1453.526073	23.066000	-5.920000
	200.995496	1453.526073	23.074000	-5.900000
	201.095502	1453.534952	23.088000	-5.830000
	201.195508	1453.523537	23.052000	-5.990000
	201.295513	1453.522268	23.086000	-5.910000
	201.395519	1453.510853	23.064000	-5.990000
	201.495525	1453.508316	23.078000	-5.920000
	201.595531	1453.510853	23.072000	-5.880000
	201.695536	1453.510853	23.102000	-5.900000
	201.795542	1453.510853	23.102000	-5.900000
	201.895547	1453.513390	23.066000	-5.880000
	201.995553	1453.510853	23.094000	-5.920000
	202.095559	1453.510853	23.062000	-5.900000
	202.195565	1453.504511	23.096000	-5.950000
	202.295570	1453.507048	23.082000	-5.880000
	202.395576	1453.505779	23.090000	-5.910000
	202.495582	1453.505779	23.106000	-5.900000
	202.595588	1453.504511	23.060000	-5.910000
	202.695593	1453.504511	23.090000	-5.900000
	202.795599	1453.505779	23.064000	-5.890000
	202.895605	1453.508316	23.110000	-5.880000
	202.995611	1453.509585	23.074000	-5.890000
	203.095616	1453.503243	23.086000	-5.950000
	203.195622	1453.507048	23.088000	-5.870000
	203.295628	1453.507048	23.088000	-5.870000
	203.395633	1453.507048	23.066000	-5.900000
	203.498639	1453.508316	23.080000	-5.890000
	203.595645	1453.509585	23.080000	-5.890000
	203.695651	1453.508317	23.086000	-5.910000
	203.795656	1453.512122	23.100000	-5.870000
	203.895662	1453.505780	23.074000	-5.950000
	203.995668	1453.512122	23.088000	-5.850000
	204.095674	1453.513391	23.058000	-5.890000
	204.195679	1453.514659	23.078000	-5.890000
	204.295685	1453.513391	23.072000	-5.910000
	204.395690	1453.513391	23.072000	-5.900000
	204.495697	1453.519733	23.084000	-5.850000
	204.595702	1453.517196	23.048000	-5.920000
	204.695708	1453.517196	23.090000	-5.900000
	204.795713	1453.521001	23.064000	-5.870000
	204.895719	1453.521001	23.064000	-5.870000
	204.995725	1453.513391	23.092000	-5.960000
	205.095731	1453.519733	23.090000	-5.850000
	205.195736	1453.518465	23.064000	-5.910000
	205.295742	1453.514659	23.084000	-5.930000
	205.397748	1453.518465	23.064000	-5.870000
	205.495754	1453.514660	23.088000	-5.930000
	205.595759	1453.513391	23.072000	-5.910000
	205.695765	1453.533688	23.098000	-5.740000
	205.795771	1453.526077	23.064000	-5.960000
	205.895776	1453.515930	23.052000	-5.980000
	205.995782	1453.507051	23.080000	-5.970000
	206.095788	1453.503246	23.076000	-5.930000
	206.195794	1453.501977	23.072000	-5.910000
	206.299799	1453.512125	23.082000	-5.820000
	206.395805	1453.512125	23.082000	-5.820000
	206.495811	1453.517199	23.070000	-5.860000
	206.595817	1453.510857	23.086000	-5.950000
	206.695822	1453.519736	23.068000	-5.830000
	206.795828	1453.512126	23.084000	-5.960000
	206.895833	1453.510857	23.082000	-5.910000
	206.997839	1453.514663	23.096000	-5.870000
	207.095845	1453.515931	23.060000	-5.890000
	207.195851	1453.513394	23.100000	-5.920000
	207.295856	1453.515931	23.088000	-5.880000
	207.395862	1453.515931	23.088000	-5.880000
	207.495868	1453.512126	23.050000	-5.930000
	207.595874	1453.512126	23.104000	-5.900000
	207.695879	1453.518468	23.068000	-5.850000
	207.795885	1453.517200	23.092000	-5.910000
	207.895891	1453.513395	23.082000	-5.930000
	207.995897	1453.513395	23.054000	-5.900000
	208.095902	1453.508321	23.068000	-5.940000
	208.195908	1453.517200	23.084000	-5.830000
	208.295914	1453.519737	23.062000	-5.880000
	208.395919	1453.521005	23.076000	-5.890000
	208.495925	1453.522274	23.056000	-5.890000
	208.595931	1453.521005	23.068000	-5.910000
	208.695937	1453.521005	23.068000	-5.910000
	208.795942	1453.523542	23.088000	-5.880000
	208.895948	1453.521006	23.046000	-5.920000
	208.995954	1453.523542	23.082000	-5.880000
	209.095960	1453.526079	23.040000	-5.880000
	209.195965	1453.524811	23.068000	-5.910000
	209.297971	1453.523542	23.056000	-5.910000
	209.395977	1453.522274	23.060000	-5.910000
	209.495982	1453.521006	23.096000	-5.910000
	209.595988	1453.524811	23.078000	-5.870000
	209.695994	1453.528616	23.078000	-5.870000
	209.796000	1453.531153	23.072000	-5.880000
	209.896005	1453.523543	23.066000	-5.960000
	209.996011	1453.521006	23.078000	-5.920000
	210.096017	1453.521006	23.078000	-5.920000
	210.196023	1453.526080	23.060000	-5.860000
	210.296028	1453.518469	23.054000	-5.960000
	210.396034	1453.522275	23.084000	-5.870000
	210.496039	1453.521006	23.056000	-5.910000
	210.596045	1453.521006	23.068000	-5.900000
	210.696051	1453.527349	23.074000	-5.850000
	210.796057	1453.519738	23.088000	-5.960000
	210.896062	1453.521007	23.086000	-5.890000
	210.996068	1453.521007	23.076000	-5.900000
	211.096074	1453.523543	23.090000	-5.880000
	211.196080	1453.524812	23.072000	-5.890000
	211.296085	1453.519738	23.066000	-5.940000
	211.396091	1453.510859	23.070000	-5.970000
	211.496097	1453.510859	23.070000	-5.970000
	211.596103	1453.513396	23.046000	-5.880000
	211.696108	1453.508323	23.074000	-5.940000
	211.796114	1453.507054	23.080000	-5.910000
	211.896120	1453.510860	23.054000	-5.870000
	211.995125	1453.508323	23.078000	-5.920000
	212.095131	1453.509591	23.098000	-5.890000
	212.195137	1453.513396	23.056000	-5.870000
	212.295143	1453.513396	23.080000	-5.900000
	212.395148	1453.518470	23.072000	-5.860000
	212.495154	1453.521007	23.082000	-5.880000
	212.595160	1453.515934	23.088000	-5.940000
	212.695165	1453.515934	23.048000	-5.900000
	212.795171	1453.515934	23.048000	-5.900000
	212.895177	1453.512128	23.094000	-5.930000
	212.995183	1453.521008	23.064000	-5.830000
	213.095188	1453.523544	23.062000	-5.880000
	213.195194	1453.523544	23.078000	-5.900000
	213.295200	1453.527350	23.042000	-5.870000
	213.395205	1453.528618	23.084000	-5.890000
	213.495211	1453.532424	23.078000	-5.870000
	213.595217	1453.532424	23.064000	-5.900000
	213.695222	1453.528618	23.066000	-5.930000
	213.795228	1453.532424	23.098000	-5.870000
	213.895234	1453.532424	23.054000	-5.900000
	213.995240	1453.533692	23.080000	-5.890000
	214.095245	1453.531155	23.048000	-5.920000
	214.195251	1453.531155	23.048000	-5.920000
	214.295257	1453.529887	23.076000	-5.910000
	214.395263	1453.532424	23.058000	-5.880000
	214.495268	1453.527350	23.068000	-5.940000
	214.595274	1453.524813	23.074000	-5.920000
	214.695280	1453.526082	23.066000	-5.890000
	214.795286	1453.528619	23.054000	-5.880000
	214.895291	1453.533692	23.076000	-5.860000
	214.995297	1453.540035	23.078000	-5.850000
	215.095303	1453.538766	23.074000	-5.910000
	215.195308	1453.528619	23.070000	-5.980000
	215.295314	1453.529888	23.062000	-5.890000
	215.395320	1453.524814	23.080000	-5.940000
	215.495326	1453.534962	23.046000	-5.820000
	215.595331	1453.534962	23.046000	-5.820000
	215.695337	1453.532425	23.072000	-5.920000
	215.795343	1453.538767	23.080000	-5.850000
	215.895349	1453.536230	23.050000	-5.920000
	215.995354	1453.540036	23.084000	-5.870000
	216.095360	1453.542573	23.080000	-5.880000
	216.195365	1453.540036	23.066000	-5.920000
	216.295371	1453.545110	23.074000	-5.860000
	216.395377	1453.540036	23.052000	-5.940000
	216.495383	1453.532425	23.088000	-5.960000
	216.595388	1453.529889	23.062000	-5.920000
	216.695394	1453.534962	23.052000	-5.860000
	216.795400	1453.534962	23.052000	-5.860000
	216.895406	1453.531157	23.088000	-5.930000
	216.995411	1453.536231	23.076000	-5.860000
	217.095417	1453.533694	23.084000	-5.920000
	217.195423	1453.540036	23.068000	-5.850000
	217.295428	1453.532426	23.078000	-5.960000
	217.395434	1453.538768	23.064000	-5.850000
	217.495440	1453.542574	23.082000	-5.870000
	217.595446	1453.540037	23.082000	-5.920000
	217.695451	1453.543842	23.068000	-5.870000
	217.795457	1453.542574	23.068000	-5.910000
	217.895463	1453.543842	23.078000	-5.890000
	217.995469	1453.386614	23.170000	-7.140000
	218.095474	1453.368859	23.316000	-6.040000
	218.195480	1453.368859	23.316000	-6.040000
	218.295485	1453.352372	23.326000	-6.030000
	218.395492	1453.335885	23.290000	-6.030000
	218.495497	1453.327007	23.308000	-5.970000
	218.595503	1453.318130	23.286000	-5.970000
	218.695508	1453.305448	23.320000	-6.000000
	218.795514	1453.305448	23.308000	-5.900000
	218.895520	1453.299106	23.296000	-5.950000
	218.995526	1453.297838	23.312000	-5.910000
	219.095531	1453.290229	23.300000	-5.960000
	219.195537	1453.291497	23.312000	-5.890000
	219.295543	1453.286424	23.304000	-5.940000
	219.395549	1453.281352	23.314000	-5.940000
	219.495554	1453.282620	23.294000	-5.890000
	219.595560	1453.282620	23.294000	-5.890000
	219.695566	1453.280083	23.302000	-5.920000
	219.795571	1453.283888	23.292000	-5.870000
	219.895577	1453.280083	23.328000	-5.930000
	219.995583	1453.281352	23.296000	-5.890000
	220.095589	1453.282620	23.300000	-5.890000
	220.196594	1453.281352	23.338000	-5.910000
	220.295600	1453.285156	23.302000	-5.870000
	220.395606	1453.283888	23.338000	-5.910000
	220.495612	1453.288961	23.286000	-5.860000
	220.595617	1453.285157	23.290000	-5.930000
	220.695623	1453.288961	23.306000	-5.870000
	220.795629	1453.288961	23.306000	-5.870000
	220.895634	1453.292766	23.276000	-5.870000
	220.995640	1453.288961	23.298000	-5.930000
	221.095646	1453.288961	23.294000	-5.900000
	221.195652	1453.282620	23.306000	-5.950000
	221.295657	1453.283889	23.304000	-5.890000
	221.395663	1453.285157	23.292000	-5.890000
	221.495669	1453.287693	23.308000	-5.880000
	221.595675	1453.288962	23.302000	-5.890000
	221.695680	1453.285157	23.300000	-5.930000
	221.795686	1453.282620	23.302000	-5.920000
	221.895691	1453.287693	23.300000	-5.860000
	221.995697	1453.286425	23.304000	-5.910000
	222.095703	1453.287693	23.320000	-5.890000
	222.195709	1453.287693	23.320000	-5.890000
	222.295714	1453.281352	23.324000	-5.950000
	222.395720	1453.283889	23.302000	-5.880000
	222.545729	1453.287694	23.322000	-5.870000
	222.645734	1453.285157	23.292000	-5.920000
	222.745740	1453.281353	23.296000	-5.930000
	222.845746	1453.282621	23.294000	-5.890000
	222.945752	1453.283889	23.288000	-5.890000
	223.045757	1453.283889	23.314000	-5.900000
	223.145763	1453.294035	23.310000	-5.820000
	223.245769	1453.288962	23.292000	-5.940000
	223.345775	1453.290231	23.280000	-5.890000
	223.445780	1453.286426	23.318000	-5.930000
	223.545786	1453.287694	23.300000	-5.890000
	223.645792	1453.285158	23.300000	-5.920000
	223.745797	1453.286426	23.320000	-5.890000
	223.845803	1453.288962	23.308000	-5.880000
	223.945809	1453.288962	23.308000	-5.880000
	224.045815	1453.288962	23.308000	-5.900000
	224.145820	1453.283890	23.308000	-5.940000
	224.245826	1453.277549	23.328000	-5.950000
	224.345832	1453.280085	23.290000	-5.880000
	224.445837	1453.275012	23.314000	-5.940000
	224.545843	1453.280085	23.306000	-5.860000
	224.645849	1453.276281	23.292000	-5.930000
	224.745854	1453.275012	23.322000	-5.910000
	224.845860	1453.276281	23.284000	-5.890000
	224.945866	1453.268671	23.310000	-5.960000
	225.045872	1453.272476	23.300000	-5.870000
	225.145877	1453.268672	23.296000	-5.930000
	225.245883	1453.268672	23.296000	-5.930000
	225.345889	1453.268672	23.302000	-5.900000
	225.445895	1453.269940	23.306000	-5.890000
	225.545900	1453.271208	23.306000	-5.890000
	225.645906	1453.269940	23.294000	-5.910000
	225.745912	1453.268672	23.324000	-5.910000
	225.845918	1453.275013	23.308000	-5.850000
	225.945923	1453.271208	23.312000	-5.930000
	226.045929	1453.275013	23.302000	-5.870000
	226.145935	1453.269940	23.294000	-5.940000
	226.245940	1453.269940	23.316000	-5.900000
	226.345946	1453.271208	23.270000	-5.890000
	226.445952	1453.269940	23.302000	-5.910000
	226.545958	1453.269940	23.292000	-5.900000
	226.645963	1453.262331	23.330000	-5.960000
	226.745969	1453.262331	23.330000	-5.960000
	226.845975	1453.271209	23.296000	-5.830000
	226.945981	1453.276282	23.302000	-5.860000
	227.045986	1453.281355	23.306000	-5.860000
	227.145992	1453.285159	23.306000	-5.870000
	227.245997	1453.281355	23.300000	-5.930000
	227.346003	1453.285159	23.306000	-5.870000
	227.446009	1453.288964	23.300000	-5.870000
	227.546015	1453.291501	23.292000	-5.880000
	227.646020	1453.291501	23.296000	-5.900000
	227.746026	1453.286428	23.316000	-5.940000
	227.846032	1453.282623	23.294000	-5.930000
	227.946038	1453.283891	23.304000	-5.890000
	228.046043	1453.288964	23.314000	-5.860000
	228.146049	1453.286428	23.306000	-5.920000
	228.247055	1453.286428	23.306000	-5.920000
	228.346060	1453.295306	23.288000	-5.830000
	228.446066	1453.295306	23.294000	-5.900000
	228.546072	1453.291501	23.310000	-5.930000
	228.646078	1453.294038	23.308000	-5.880000
	228.746083	1453.290233	23.302000	-5.930000
	228.846089	1453.288965	23.316000	-5.910000
	228.946095	1453.291501	23.294000	-5.880000
	229.046101	1453.290233	23.328000	-5.910000
	229.146106	1453.296574	23.308000	-5.850000
	229.246112	1453.291502	23.276000	-5.940000
	229.346117	1453.285161	23.322000	-5.950000
	229.445123	1453.285161	23.322000	-5.950000
	229.545129	1453.283892	23.292000	-5.910000
	229.645135	1453.280088	23.314000	-5.930000
	229.745141	1453.288965	23.302000	-5.830000
	229.845146	1453.286429	23.318000	-5.920000
	229.945152	1453.291502	23.304000	-5.860000
	230.045158	1453.285161	23.302000	-5.950000
	230.145164	1453.277552	23.302000	-5.960000
	230.245169	1453.283893	23.294000	-5.850000
	230.345175	1453.286430	23.304000	-5.880000
	230.445180	1453.287698	23.298000	-5.890000
	230.545187	1453.278820	23.312000	-5.970000
	230.645192	1453.283893	23.286000	-5.860000
	230.745198	1453.290235	23.294000	-5.850000
	230.845203	1453.296576	23.310000	-5.850000
	230.945209	1453.296576	23.310000	-5.850000
	231.045215	1453.304186	23.298000	-5.840000
	231.145221	1453.307990	23.296000	-5.870000
	231.245226	1453.306722	23.304000	-5.910000
	231.345232	1453.301649	23.290000	-5.940000
	231.445238	1453.306722	23.298000	-5.860000
	231.545243	1453.310527	23.294000	-5.870000
	231.645249	1453.313064	23.292000	-5.880000
	231.745255	1453.310527	23.320000	-5.920000
	231.845261	1453.315600	23.288000	-5.860000
	231.945266	1453.311796	23.316000	-5.930000
	232.045272	1453.306723	23.288000	-5.940000
	232.145278	1453.309259	23.280000	-5.880000
	232.245284	1453.309259	23.280000	-5.880000
	232.345289	1453.305455	23.302000	-5.930000
	232.445295	1453.311796	23.270000	-5.850000
	232.545300	1453.309259	23.280000	-5.920000
	232.645307	1453.302918	23.302000	-5.950000
	232.745312	1453.300382	23.282000	-5.920000
	232.845318	1453.297845	23.324000	-5.920000
	232.945323	1453.306723	23.296000	-5.830000
	233.045329	1453.299114	23.308000	-5.960000
	233.145335	1453.304187	23.328000	-5.860000
	233.245341	1453.301651	23.276000	-5.920000
	233.345346	1453.295310	23.304000	-5.950000
	233.445352	1453.299114	23.278000	-5.870000
	233.545358	1453.295310	23.282000	-5.930000
	233.645364	1453.299114	23.284000	-5.870000
	233.745369	1453.508583	23.446000	-4.250000
	233.845375	1453.508583	23.446000	-4.250000
	233.945381	1453.492095	23.198000	-6.030000
	234.045386	1453.480679	23.300000	-5.990000
	234.145392	1453.452777	23.334000	-6.120000
	234.245398	1453.428680	23.298000	-6.090000
	234.345404	1453.429948	23.350000	-5.890000
	234.445409	1453.369078	23.382000	-6.380000
	234.545415	1453.285391	23.430000	-6.560000
	234.645421	1453.074958	23.684000	-7.560000
	234.745427	1452.893703	23.782000	-7.330000
	234.845432	1452.688395	23.732000	-7.520000
	234.945438	1452.445107	24.022000	-7.820000
	235.045444	1452.251264	23.796000	-7.430000
	235.145449	1452.251264	23.796000	-7.430000
	235.245455	1451.972582	24.332000	-8.100000
	235.345461	1451.848449	24.126000	-6.880000
	235.450467	1451.749652	24.100000	-6.680000
	235.545472	1451.673656	24.078000	-6.500000
	235.645478	1451.602728	24.072000	-6.460000
	235.745484	1451.549533	24.070000	-6.320000
	235.845490	1451.507737	24.088000	-6.230000
	235.945495	1451.474807	24.064000	-6.160000
	236.045501	1451.458341	24.080000	-6.030000
	236.145506	1451.430478	24.090000	-6.120000
	236.245512	1451.422879	24.070000	-5.960000
	236.345518	1451.411479	24.078000	-5.990000
	236.445524	1451.403880	24.066000	-5.960000
	236.545529	1451.403880	24.066000	-5.960000
	236.645535	1451.400080	24.072000	-5.930000
	236.745541	1451.398814	24.058000	-5.910000
	236.845547	1451.400080	24.050000	-5.890000
	236.945552	1451.406413	24.050000	-5.850000
	237.045558	1451.408947	24.044000	-5.880000
	237.145564	1451.415280	24.048000	-5.850000
	237.245570	1451.416546	24.052000	-5.890000
	237.345575	1451.414013	24.072000	-5.920000
	237.445581	1451.412747	24.034000	-5.910000
	237.545587	1451.419080	24.062000	-5.850000
	237.645592	1451.419080	24.062000	-5.900000
	237.745598	1451.427946	24.052000	-5.830000
	237.845604	1451.429213	24.030000	-5.890000
	237.945610	1451.430479	24.024000	-5.890000
	238.045615	1451.430479	24.024000	-5.890000
	238.145621	1451.434279	24.038000	-5.870000
	238.245627	1451.446946	24.032000	-5.800000
	238.345633	1451.458346	24.028000	-5.810000
	238.445638	1451.458346	24.042000	-5.900000
	238.545644	1451.457080	24.038000	-5.910000
	238.645649	1451.464680	24.056000	-5.840000
	238.745655	1451.460880	24.034000	-5.930000
	238.845661	1451.472280	24.014000	-5.810000
	238.945667	1451.477347	24.034000	-5.860000
	239.045672	1451.474813	24.018000	-5.920000
	239.145678	1451.478613	24.040000	-5.870000
	239.245684	1451.472280	24.024000	-5.950000
	239.345690	1451.477347	24.002000	-5.860000
	239.445695	1451.486214	24.022000	-5.830000
	239.545701	1451.486214	24.022000	-5.830000
	239.645707	1451.482414	24.028000	-5.930000
	239.745712	1451.495081	24.020000	-5.800000
	239.845718	1451.495081	24.040000	-5.900000
	239.945724	1451.500148	24.014000	-5.860000
	240.045730	1451.498881	24.034000	-5.910000
	240.145735	1451.500148	24.014000	-5.890000
	240.245741	1451.506481	24.030000	-5.850000
	240.345747	1451.497615	24.024000	-5.970000
	240.445753	1451.505215	23.990000	-5.840000
	240.545758	1451.505215	24.048000	-5.900000
	240.645764	1451.505215	24.016000	-5.900000
	240.745770	1451.514082	24.010000	-5.830000
	240.845776	1451.511549	24.018000	-5.920000
	240.945781	1451.511549	24.018000	-5.920000
	241.045787	1451.514082	24.000000	-5.880000
	241.145792	1451.516615	24.028000	-5.880000
	241.245798	1451.519149	24.010000	-5.880000
	241.345804	1451.528016	24.010000	-5.830000
	241.445810	1451.533083	24.030000	-5.860000
	241.545815	1451.535616	23.992000	-5.880000
	241.645821	1451.540683	24.024000	-5.860000
	241.745827	1451.536883	24.012000	-5.930000
	241.845833	1451.541950	24.014000	-5.860000
	241.945838	1451.538150	24.022000	-5.930000
	242.045844	1451.541950	23.974000	-5.870000
	242.145850	1451.540683	24.024000	-5.910000
	242.245855	1451.547017	23.982000	-5.850000
	242.345861	1451.547017	23.982000	-5.850000
	242.445867	1451.558418	24.008000	-5.810000
	242.545873	1451.553351	24.012000	-5.940000
	242.645878	1451.559685	23.996000	-5.850000
	242.745884	1451.559685	24.010000	-5.900000
	242.845890	1451.562218	23.988000	-5.880000
	242.945896	1451.569819	24.012000	-5.840000
	243.045901	1451.571086	23.990000	-5.890000
	243.145907	1451.569819	24.000000	-5.910000
	243.245913	1451.566019	23.996000	-5.930000
	243.345919	1451.572352	23.988000	-5.850000
	243.445924	1451.569819	24.018000	-5.920000
	243.545930	1451.573619	24.010000	-5.870000
	243.645936	1451.577420	23.992000	-5.870000
	243.745941	1451.577420	23.992000	-5.870000
	243.845947	1451.571086	23.988000	-5.950000
	243.945953	1451.578687	23.984000	-5.840000
	244.045959	1451.572353	24.016000	-5.950000
	244.145964	1451.573620	23.992000	-5.890000
	244.245970	1451.581220	24.002000	-5.840000
	244.347976	1451.585021	23.972000	-5.870000
	244.445982	1451.583754	23.982000	-5.910000
	244.545987	1451.590088	23.980000	-5.850000
	244.645993	1451.593888	23.982000	-5.870000
	244.745998	1451.591355	24.002000	-5.920000
	244.846004	1451.596422	23.982000	-5.860000
	244.950010	1451.591355	23.998000	-5.940000
	245.046016	1451.591355	23.998000	-5.940000
	245.146021	1451.593888	23.986000	-5.880000
	245.246027	1451.597689	24.000000	-5.870000
	245.346033	1451.601489	23.968000	-5.870000
	245.446039	1451.606556	23.992000	-5.860000
	245.546044	1451.607823	23.972000	-5.890000
	245.646050	1451.609090	23.986000	-5.890000
	245.746056	1451.611623	24.006000	-5.880000
	245.846062	1451.611623	23.970000	-5.900000
	245.946067	1451.616690	24.022000	-5.860000
	246.046073	1451.623024	23.982000	-5.850000
	246.146079	1451.631892	24.000000	-5.830000
	246.246084	1451.629359	24.010000	-5.920000
	246.346090	1451.635693	23.968000	-5.850000
	246.446096	1451.638226	24.008000	-5.880000
	246.546102	1451.638226	24.008000	-5.880000
	246.646107	1451.629359	23.968000	-5.970000
	246.746113	1451.631892	24.000000	-5.880000
	246.846119	1451.628092	23.988000	-5.930000
	246.945124	1451.629359	23.970000	-5.890000
	247.045130	1451.624292	24.006000	-5.940000
	247.145136	1451.626825	23.968000	-5.880000
	247.245142	1451.631893	23.998000	-5.860000
	247.345147	1451.625559	23.986000	-5.950000
	247.445153	1451.630626	23.988000	-5.860000
	247.545158	1451.624292	24.012000	-5.950000
	247.645164	1451.626826	23.974000	-5.880000
	247.745170	1451.630626	23.986000	-5.870000
	247.845176	1451.635694	23.974000	-5.860000
	247.945181	1451.635694	23.974000	-5.860000
	248.045187	1451.636960	23.976000	-5.890000
	248.145193	1451.630627	24.004000	-5.950000
	248.245199	1451.638227	23.986000	-5.840000
	248.345204	1451.639494	23.988000	-5.890000
	248.445210	1451.644562	23.976000	-5.860000
	248.545216	1451.644562	24.008000	-5.900000
	248.645222	1451.644562	23.966000	-5.900000
	248.747227	1451.652163	23.976000	-5.840000
	248.845233	1451.652163	23.974000	-5.900000
	248.945239	1451.657230	23.970000	-5.860000
	249.045244	1451.654696	23.982000	-5.920000
	249.145250	1451.654696	23.980000	-5.900000
	249.245256	1451.666098	24.000000	-5.810000
	249.345262	1451.666098	24.000000	-5.810000
	249.445267	1451.667365	23.970000	-5.890000
	249.546273	1451.672432	23.996000	-5.860000
	249.645279	1451.669899	23.986000	-5.920000
	249.745285	1451.678767	23.948000	-5.830000
	249.845290	1451.677500	23.976000	-5.910000
	249.945296	1451.674966	23.962000	-5.920000
	250.045301	1451.674966	24.012000	-5.900000
	250.145308	1451.674966	24.000000	-5.900000
	250.245313	1451.678767	23.982000	-5.870000
	250.345319	1451.671166	23.972000	-5.960000
	250.445324	1451.677500	23.974000	-5.850000
	250.545330	1451.677500	23.974000	-5.850000
	250.645336	1451.673700	23.994000	-5.930000
	250.746342	1451.671166	23.956000	-5.920000
	250.845347	1451.672433	23.976000	-5.890000
	250.947353	1451.680034	23.964000	-5.840000
	251.045359	1451.683835	23.984000	-5.870000
	251.145365	1451.685101	23.948000	-5.890000
	251.245370	1451.734517	24.180000	-5.510000
	251.345376	1451.715515	24.002000	-6.050000
	251.445382	1451.712981	23.966000	-5.920000
	251.545387	1451.712981	23.966000	-5.900000
	251.645393	1451.718049	23.970000	-5.860000
	251.745399	1451.710448	23.970000	-5.960000
	251.845405	1451.710448	23.970000	-5.960000
	251.945410	1451.711715	23.952000	-5.890000
	252.045416	1451.710448	23.994000	-5.910000
	252.145422	1451.702847	23.950000	-5.960000
	252.245428	1451.701580	23.976000	-5.910000
	252.345433	1451.699047	23.980000	-5.920000
	252.445439	1451.697780	23.940000	-5.910000
	252.545444	1451.695246	23.956000	-5.920000
	252.645451	1451.695246	23.950000	-5.900000
	252.745456	1451.697780	23.974000	-5.880000
	252.845462	1451.696513	23.952000	-5.910000
	252.945467	1451.701580	23.954000	-5.860000
	253.045473	1451.695246	23.980000	-5.950000
	253.145479	1451.701581	23.974000	-5.850000
	253.245485	1451.701581	23.950000	-5.900000
	253.347490	1451.701581	23.942000	-5.900000
	253.445496	1451.701581	23.942000	-5.900000
	253.550502	1451.702847	23.968000	-5.890000
	253.645508	1451.706648	23.954000	-5.870000
	253.747513	1451.707915	23.948000	-5.890000
	253.845519	1451.711716	23.960000	-5.870000
	253.945525	1451.712982	23.982000	-5.890000
	254.045530	1451.711716	23.942000	-5.910000
	254.145536	1451.714249	23.994000	-5.880000
	254.245542	1451.707915	23.940000	-5.950000
	254.345548	1451.709182	23.972000	-5.890000
	254.445553	1451.714249	23.960000	-5.860000
	254.545559	1451.718050	23.984000	-5.870000
	254.645565	1451.716783	23.946000	-5.910000
	254.748571	1451.724385	23.960000	-5.840000
	254.845576	1451.724385	23.960000	-5.840000
	254.947582	1451.720584	23.950000	-5.930000
	255.045588	1451.726919	23.964000	-5.850000
	255.145593	1451.730719	23.948000	-5.870000
	255.245599	1451.731986	23.954000	-5.890000
	255.345605	1451.723118	23.944000	-5.970000
	255.446610	1451.733253	23.958000	-5.820000
	255.545616	1451.725652	23.958000	-5.960000
	255.645622	1451.730720	23.954000	-5.860000
	255.750628	1451.730720	23.946000	-5.900000
	255.845634	1451.735788	23.960000	-5.860000
	255.945639	1451.735788	23.960000	-5.860000
	256.045645	1451.730720	23.956000	-5.940000
	256.151651	1451.738322	23.940000	-5.840000
	256.245656	1451.740855	23.944000	-5.880000
	256.345662	1451.743389	23.978000	-5.880000
	256.445668	1451.738322	23.932000	-5.940000
	256.546673	1451.739589	23.946000	-5.890000
	256.645679	1451.735788	23.964000	-5.930000
	256.751685	1451.739589	23.962000	-5.870000
	256.845691	1451.739589	23.946000	-5.900000
	256.945696	1451.743389	23.940000	-5.870000
	257.045702	1451.743389	23.960000	-5.900000
	257.145708	1451.748457	23.954000	-5.860000
	257.245714	1451.748457	23.954000	-5.860000
	257.355720	1451.742123	23.956000	-5.950000
	257.445725	1451.747190	23.952000	-5.860000
	257.545731	1451.753525	23.974000	-5.850000
	257.645736	1451.759860	23.936000	-5.850000
	257.745742	1451.756059	23.982000	-5.930000
	257.845748	1451.764927	23.940000	-5.830000
	257.945754	1451.763661	23.946000	-5.910000
	258.045759	1451.761127	23.946000	-5.920000
	258.145765	1451.756059	23.970000	-5.940000
	258.245771	1451.754792	23.934000	-5.910000
	258.345777	1451.757326	23.944000	-5.880000
	258.445782	1451.762394	23.982000	-5.860000
	258.545788	1451.764928	23.958000	-5.880000
	258.645793	1451.764928	23.958000	-5.880000
	258.745799	1451.750992	23.952000	-6.010000
	258.845805	1451.754793	23.924000	-5.870000
	258.950811	1451.753526	23.960000	-5.910000
	259.045816	1451.754793	23.942000	-5.890000
	259.145822	1451.757327	23.954000	-5.880000
	259.245828	1451.756060	23.944000	-5.910000
	259.345834	1451.759861	23.940000	-5.870000
	259.445839	1451.754793	23.942000	-5.940000
	259.545845	1451.758594	23.942000	-5.870000
	259.645851	1451.757327	23.944000	-5.910000
	259.745856	1451.767463	23.946000	-5.820000
	259.845862	1451.768730	23.938000	-5.890000
	259.945868	1451.762395	23.922000	-5.950000
	260.045874	1451.761128	23.972000	-5.910000
	260.145879	1451.759861	23.918000	-5.910000
	260.245885	1451.759861	23.918000	-5.910000
	260.345891	1451.762395	23.962000	-5.880000
	260.445897	1451.754794	23.932000	-5.960000
	260.545902	1451.766196	23.940000	-5.810000
	260.645908	1451.762396	23.952000	-5.930000
	260.745914	1451.763663	23.950000	-5.890000
	260.845920	1451.763663	23.940000	-5.900000
	260.945925	1451.769997	23.966000	-5.850000
	261.045931	1451.764930	23.962000	-5.940000
	261.145936	1451.767464	23.926000	-5.880000
	261.245942	1451.771264	23.958000	-5.870000
	261.357949	1451.777599	23.950000	-5.850000
	261.445954	1451.777599	23.950000	-5.850000
	261.545959	1451.776332	23.956000	-5.910000
	261.645965	1451.773798	23.928000	-5.920000
	261.745971	1451.782667	23.956000	-5.830000
	261.845977	1451.778866	23.910000	-5.930000
	261.958983	1451.782667	23.952000	-5.870000
	262.045988	1451.782667	23.950000	-5.900000
	262.145994	1451.785201	23.946000	-5.880000
	262.245999	1451.787735	23.938000	-5.880000
	262.346005	1451.797871	23.954000	-5.820000
	262.446011	1451.797871	23.948000	-5.900000
	262.546017	1451.804205	23.928000	-5.850000
	262.646022	1451.799138	23.952000	-5.940000
	262.751029	1451.799138	23.952000	-5.940000
	262.846034	1451.797871	23.948000	-5.910000
	262.946040	1451.802939	23.958000	-5.860000
	263.047045	1451.792803	23.932000	-5.980000
	263.146051	1451.799138	23.954000	-5.850000
	263.246057	1451.795338	23.934000	-5.930000
	263.346062	1451.791537	23.950000	-5.930000
	263.446068	1451.791537	23.960000	-5.900000
	263.546074	1451.791537	23.922000	-5.900000
	263.647079	1451.791537	23.960000	-5.900000
	263.746085	1451.787736	23.938000	-5.930000
	263.846091	1451.792804	23.940000	-5.860000
	263.946097	1451.790270	23.930000	-5.920000
	264.046103	1451.790270	23.930000	-5.920000
	264.163109	1451.796605	23.934000	-5.850000
	264.246114	1451.795338	23.938000	-5.910000
	264.359120	1451.799139	23.964000	-5.870000
	264.445125	1451.806740	23.970000	-5.840000
	264.545131	1451.808007	23.930000	-5.890000
	264.645137	1451.813075	23.938000	-5.860000
	264.745142	1451.809275	23.952000	-5.930000
	264.845148	1451.816876	23.936000	-5.840000
	264.945154	1451.813076	23.954000	-5.930000
	265.045160	1451.814343	23.924000	-5.890000
	265.145165	1451.815609	23.934000	-5.890000
	265.247171	1451.805474	23.938000	-5.980000
	265.345177	1451.809275	23.934000	-5.870000
	265.445182	1451.809275	23.934000	-5.870000
	265.561189	1451.802941	23.920000	-5.950000
	265.645194	1451.813076	23.918000	-5.820000
	265.745200	1451.813076	23.954000	-5.900000
	265.845205	1451.810543	23.936000	-5.920000
	265.945211	1451.810543	23.946000	-5.900000
	266.045217	1451.806742	23.914000	-5.930000
	266.152223	1451.806742	23.938000	-5.900000
	266.245228	1451.808009	23.944000	-5.890000
	266.345234	1451.811810	23.920000	-5.870000
	266.445240	1451.808009	23.970000	-5.930000
	266.545245	1451.808009	23.970000	-5.930000
	266.649251	1451.814344	23.940000	-5.850000
	266.760258	1451.814344	23.962000	-5.900000
	266.845263	1451.820678	23.908000	-5.850000
	266.947268	1451.818145	23.948000	-5.920000
	267.048274	1451.818145	23.950000	-5.900000
	267.145280	1451.819412	23.936000	-5.890000
	267.245286	1451.818145	23.940000	-5.910000
	267.345291	1451.823213	23.920000	-5.860000
	267.445297	1451.821946	23.946000	-5.910000
	267.545302	1451.821946	23.920000	-5.900000
	267.645308	1451.825746	23.932000	-5.870000
	267.745314	1451.819412	23.942000	-5.950000
	267.848320	1451.824480	23.932000	-5.860000
	267.945325	1451.820679	23.944000	-5.930000
	268.045331	1451.820679	23.944000	-5.930000
	268.145337	1451.830815	23.936000	-5.820000
	268.245343	1451.825747	23.954000	-5.940000
	268.345348	1451.835883	23.954000	-5.820000
	268.445354	1451.830815	23.950000	-5.940000
	268.545360	1451.842218	23.922000	-5.810000
	268.645366	1451.839685	23.918000	-5.920000
	268.745371	1451.842219	23.898000	-5.880000
	268.845377	1451.835884	23.954000	-5.950000
	268.945383	1451.835884	23.916000	-5.900000
	269.045388	1451.835884	23.916000	-5.900000
	269.145394	1451.840952	23.946000	-5.860000
	269.245400	1451.847287	23.918000	-5.850000
	269.345406	1451.849821	23.946000	-5.880000
	269.445411	1451.839685	23.912000	-5.980000
	269.545417	1451.847287	23.932000	-5.840000
	269.645422	1451.847287	23.928000	-5.900000
	269.747428	1451.848554	23.910000	-5.890000
	269.845434	1451.843486	23.960000	-5.940000
	269.945440	1451.842219	23.904000	-5.910000
	270.045445	1451.838419	23.928000	-5.930000
	270.145451	1451.830817	23.918000	-5.960000
	270.245457	1451.830817	23.918000	-5.960000
	270.345463	1451.834618	23.916000	-5.870000
	270.445468	1451.835885	23.938000	-5.890000
	270.545474	1451.843487	23.910000	-5.840000
	270.645480	1451.849822	23.942000	-5.850000
	270.745486	1451.847288	23.938000	-5.920000
	270.845491	1451.853623	23.922000	-5.850000
	270.945497	1451.844754	23.918000	-5.970000
	271.045503	1451.852356	23.922000	-5.840000
	271.145508	1451.851089	23.932000	-5.910000
	271.245514	1451.853623	23.916000	-5.880000
	271.345520	1451.848556	23.928000	-5.940000
	271.445526	1451.846022	23.914000	-5.920000
	271.545531	1451.846022	23.914000	-5.920000
	271.646537	1451.844755	23.932000	-5.910000
	271.745543	1451.844755	23.924000	-5.900000
	271.845549	1451.848556	23.922000	-5.870000
	271.945554	1451.852357	23.922000	-5.870000
	272.045560	1451.851090	23.918000	-5.910000
	272.145566	1451.858692	23.932000	-5.840000
	272.245572	1451.852357	23.928000	-5.950000
	272.345577	1451.853624	23.916000	-5.890000
	272.445583	1451.848556	23.928000	-5.940000
	272.545588	1451.856158	23.902000	-5.840000
	272.645594	1451.859959	23.936000	-5.870000
	272.745600	1451.858692	23.906000	-5.910000
	272.845606	1451.858692	23.906000	-5.910000
	272.945611	1451.865027	23.960000	-5.850000
	273.045617	1451.859959	23.910000	-5.940000
	273.145623	1451.863760	23.928000	-5.870000
	273.245628	1451.861226	23.918000	-5.920000
	273.347634	1451.862493	23.944000	-5.890000
	273.445640	1451.863760	23.912000	-5.890000
	273.545646	1451.868828	23.926000	-5.860000
	273.645651	1451.863761	23.902000	-5.940000
	273.745657	1451.867562	23.914000	-5.870000
	273.845663	1451.867562	23.914000	-5.870000
	273.945669	1451.865028	23.938000	-5.920000
	274.045674	1451.871363	23.908000	-5.850000
	274.145680	1451.868829	23.948000	-5.920000
	274.245686	1451.877698	23.902000	-5.830000
	274.345692	1451.885300	23.936000	-5.840000
	274.445697	1451.881499	23.906000	-5.930000
